build	computer.platform	date	time	subject	group	blockcode	blocknum	trialcode	trialnum	latency	response	correct	values.currentsetsize	text.letters.currentitem	values.mathproblemcount	text.MathProblem.currentitem	values.mathtrueanswer	values.mathanswer	values.mathcorrect	values.mathaccuracy	values.mathtotalerrors	values.mathaccerrors	values.mathspeederrors	values.mathtimeout	values.recalledletters	values.totalcorrectletters	values.totalrecalledsets	values.ospan
5.0.4.0	win	081216	09:53:17	1	1	PracLetter	2	show_letter	2	800	0	0	2	F	0	  0	0	0		0	0	0	0	5000		0	0	0
5.0.4.0	win	081216	09:53:17	1	1	PracLetter	2	show_letter	3	800	0	0	2	P	0	  0	0	0		0	0	0	0	5000		0	0	0
5.0.4.0	win	081216	09:53:17	1	1	PracLetter	2	recall_letter	4	1024	F	0	2	P	0	  0	0	0		0	0	0	0	5000	F	0	0	0
5.0.4.0	win	081216	09:53:17	1	1	PracLetter	2	recall_letter	5	367	P	0	2	P	0	  0	0	0		0	0	0	0	5000	FP	0	0	0
5.0.4.0	win	081216	09:53:17	1	1	PracLetter	2	recall_letter	6	592	exit	0	2	P	0	  0	0	0		0	0	0	0	5000	FP	0	0	0
5.0.4.0	win	081216	09:53:17	1	1	PracLetter	2	letter_feedback	7	1500	0	0	2	P	0	  0	0	0		0	0	0	0	5000	FP	2	1	2
5.0.4.0	win	081216	09:53:17	1	1	PracLetter	2	show_letter	9	800	0	0	2	Q	0	  0	0	0		0	0	0	0	5000		2	1	2
5.0.4.0	win	081216	09:53:17	1	1	PracLetter	2	show_letter	10	800	0	0	2	J	0	  0	0	0		0	0	0	0	5000		2	1	2
5.0.4.0	win	081216	09:53:17	1	1	PracLetter	2	recall_letter	11	922	Q	0	2	J	0	  0	0	0		0	0	0	0	5000	Q	2	1	2
5.0.4.0	win	081216	09:53:17	1	1	PracLetter	2	recall_letter	12	1029	J	0	2	J	0	  0	0	0		0	0	0	0	5000	QJ	2	1	2
5.0.4.0	win	081216	09:53:17	1	1	PracLetter	2	recall_letter	13	964	exit	0	2	J	0	  0	0	0		0	0	0	0	5000	QJ	2	1	2
5.0.4.0	win	081216	09:53:17	1	1	PracLetter	2	letter_feedback	14	1500	0	0	2	J	0	  0	0	0		0	0	0	0	5000	QJ	4	2	4
5.0.4.0	win	081216	09:53:17	1	1	PracLetter	2	show_letter	16	800	0	0	3	H	0	  0	0	0		0	0	0	0	5000		4	2	4
5.0.4.0	win	081216	09:53:17	1	1	PracLetter	2	show_letter	17	800	0	0	3	K	0	  0	0	0		0	0	0	0	5000		4	2	4
5.0.4.0	win	081216	09:53:17	1	1	PracLetter	2	show_letter	18	800	0	0	3	T	0	  0	0	0		0	0	0	0	5000		4	2	4
5.0.4.0	win	081216	09:53:17	1	1	PracLetter	2	recall_letter	19	998	H	0	3	T	0	  0	0	0		0	0	0	0	5000	H	4	2	4
5.0.4.0	win	081216	09:53:17	1	1	PracLetter	2	recall_letter	20	334	K	0	3	T	0	  0	0	0		0	0	0	0	5000	HK	4	2	4
5.0.4.0	win	081216	09:53:17	1	1	PracLetter	2	recall_letter	21	409	T	0	3	T	0	  0	0	0		0	0	0	0	5000	HKT	4	2	4
5.0.4.0	win	081216	09:53:17	1	1	PracLetter	2	recall_letter	22	577	exit	0	3	T	0	  0	0	0		0	0	0	0	5000	HKT	4	2	4
5.0.4.0	win	081216	09:53:17	1	1	PracLetter	2	letter_feedback	23	1500	0	0	3	T	0	  0	0	0		0	0	0	0	5000	HKT	7	3	7
5.0.4.0	win	081216	09:53:17	1	1	PracLetter	2	show_letter	25	800	0	0	3	S	0	  0	0	0		0	0	0	0	5000		7	3	7
5.0.4.0	win	081216	09:53:17	1	1	PracLetter	2	show_letter	26	800	0	0	3	N	0	  0	0	0		0	0	0	0	5000		7	3	7
5.0.4.0	win	081216	09:53:17	1	1	PracLetter	2	show_letter	27	800	0	0	3	R	0	  0	0	0		0	0	0	0	5000		7	3	7
5.0.4.0	win	081216	09:53:17	1	1	PracLetter	2	recall_letter	28	1242	S	0	3	R	0	  0	0	0		0	0	0	0	5000	S	7	3	7
5.0.4.0	win	081216	09:53:17	1	1	PracLetter	2	recall_letter	29	481	N	0	3	R	0	  0	0	0		0	0	0	0	5000	SN	7	3	7
5.0.4.0	win	081216	09:53:17	1	1	PracLetter	2	recall_letter	30	334	R	0	3	R	0	  0	0	0		0	0	0	0	5000	SNR	7	3	7
5.0.4.0	win	081216	09:53:17	1	1	PracLetter	2	recall_letter	31	721	exit	0	3	R	0	  0	0	0		0	0	0	0	5000	SNR	7	3	7
5.0.4.0	win	081216	09:53:17	1	1	PracLetter	2	letter_feedback	32	1500	0	0	3	R	0	  0	0	0		0	0	0	0	5000	SNR	10	4	10
5.0.4.0	win	081216	09:53:17	1	1	PracMath	4	prac_show_math	1	2572	lbuttondown	0	3	R	0	  0	0	0		0	0	0	0	5000	SNR	10	4	10
5.0.4.0	win	081216	09:53:17	1	1	PracMath	4	prac_solve_math	2	840	TRUE	1	3	R	0	  0	0	0		0	0	0	0	5000	SNR	10	4	10
5.0.4.0	win	081216	09:53:17	1	1	PracMath	4	prac_show_math	3	2002	lbuttondown	0	3	R	0	  0	0	0		0	0	0	0	5000	SNR	10	4	10
5.0.4.0	win	081216	09:53:17	1	1	PracMath	4	prac_solve_math	4	998	FALSE	1	3	R	0	  0	0	0		0	0	0	0	5000	SNR	10	4	10
5.0.4.0	win	081216	09:53:17	1	1	PracMath	4	prac_show_math	5	2746	lbuttondown	0	3	R	0	  0	0	0		0	0	0	0	5000	SNR	10	4	10
5.0.4.0	win	081216	09:53:17	1	1	PracMath	4	prac_solve_math	6	791	FALSE	0	3	R	0	  0	0	0		0	0	0	0	5000	SNR	10	4	10
5.0.4.0	win	081216	09:53:17	1	1	PracMath	4	prac_show_math	7	3003	lbuttondown	0	3	R	0	  0	0	0		0	0	0	0	5000	SNR	10	4	10
5.0.4.0	win	081216	09:53:17	1	1	PracMath	4	prac_solve_math	8	807	TRUE	1	3	R	0	  0	0	0		0	0	0	0	5000	SNR	10	4	10
5.0.4.0	win	081216	09:53:17	1	1	PracMath	4	prac_show_math	9	1882	lbuttondown	0	3	R	0	  0	0	0		0	0	0	0	5000	SNR	10	4	10
5.0.4.0	win	081216	09:53:17	1	1	PracMath	4	prac_solve_math	10	771	FALSE	1	3	R	0	  0	0	0		0	0	0	0	5000	SNR	10	4	10
5.0.4.0	win	081216	09:53:17	1	1	PracMath	4	prac_show_math	11	1807	lbuttondown	0	3	R	0	  0	0	0		0	0	0	0	5000	SNR	10	4	10
5.0.4.0	win	081216	09:53:17	1	1	PracMath	4	prac_solve_math	12	1347	TRUE	1	3	R	0	  0	0	0		0	0	0	0	5000	SNR	10	4	10
5.0.4.0	win	081216	09:53:17	1	1	PracMath	4	prac_show_math	13	2097	lbuttondown	0	3	R	0	  0	0	0		0	0	0	0	5000	SNR	10	4	10
5.0.4.0	win	081216	09:53:17	1	1	PracMath	4	prac_solve_math	14	905	FALSE	1	3	R	0	  0	0	0		0	0	0	0	5000	SNR	10	4	10
5.0.4.0	win	081216	09:53:17	1	1	PracMath	4	prac_show_math	15	2888	lbuttondown	0	3	R	0	  0	0	0		0	0	0	0	5000	SNR	10	4	10
5.0.4.0	win	081216	09:53:17	1	1	PracMath	4	prac_solve_math	16	704	TRUE	1	3	R	0	  0	0	0		0	0	0	0	5000	SNR	10	4	10
5.0.4.0	win	081216	09:53:17	1	1	PracMath	4	prac_show_math	17	3775	lbuttondown	0	3	R	0	  0	0	0		0	0	0	0	5000	SNR	10	4	10
5.0.4.0	win	081216	09:53:17	1	1	PracMath	4	prac_solve_math	18	1148	FALSE	1	3	R	0	  0	0	0		0	0	0	0	5000	SNR	10	4	10
5.0.4.0	win	081216	09:53:17	1	1	PracMath	4	prac_show_math	19	2378	lbuttondown	0	3	R	0	  0	0	0		0	0	0	0	5000	SNR	10	4	10
5.0.4.0	win	081216	09:53:17	1	1	PracMath	4	prac_solve_math	20	678	TRUE	1	3	R	0	  0	0	0		0	0	0	0	5000	SNR	10	4	10
5.0.4.0	win	081216	09:53:17	1	1	PracMath	4	prac_show_math	21	1151	lbuttondown	0	3	R	0	  0	0	0		0	0	0	0	5000	SNR	10	4	10
5.0.4.0	win	081216	09:53:17	1	1	PracMath	4	prac_solve_math	22	620	FALSE	1	3	R	0	  0	0	0		0	0	0	0	5000	SNR	10	4	10
5.0.4.0	win	081216	09:53:17	1	1	PracMath	4	prac_show_math	23	2031	lbuttondown	0	3	R	0	  0	0	0		0	0	0	0	5000	SNR	10	4	10
5.0.4.0	win	081216	09:53:17	1	1	PracMath	4	prac_solve_math	24	834	FALSE	1	3	R	0	  0	0	0		0	0	0	0	5000	SNR	10	4	10
5.0.4.0	win	081216	09:53:17	1	1	PracMath	4	prac_show_math	25	1844	lbuttondown	0	3	R	0	  0	0	0		0	0	0	0	5000	SNR	10	4	10
5.0.4.0	win	081216	09:53:17	1	1	PracMath	4	prac_solve_math	26	862	FALSE	1	3	R	0	  0	0	0		0	0	0	0	5000	SNR	10	4	10
5.0.4.0	win	081216	09:53:17	1	1	PracMath	4	prac_show_math	27	6207	lbuttondown	0	3	R	0	  0	0	0		0	0	0	0	5000	SNR	10	4	10
5.0.4.0	win	081216	09:53:17	1	1	PracMath	4	prac_solve_math	28	762	TRUE	1	3	R	0	  0	0	0		0	0	0	0	5000	SNR	10	4	10
5.0.4.0	win	081216	09:53:17	1	1	PracMath	4	prac_show_math	29	1775	lbuttondown	0	3	R	0	  0	0	0		0	0	0	0	5000	SNR	10	4	10
5.0.4.0	win	081216	09:53:17	1	1	PracMath	4	prac_solve_math	30	580	TRUE	1	3	R	0	  0	0	0		0	0	0	0	5000	SNR	10	4	10
5.0.4.0	win	081216	09:53:17	1	1	PracBoth	6	show_math	3	2899	lbuttondown	0	2	R	1	(4/1) - 1	3	3	TRUE	0	0	0	0	5538.7324916284142091172		0	0	0
5.0.4.0	win	081216	09:53:17	1	1	PracBoth	6	solve_math	4	867	TRUE	1	2	R	1	(4/1) - 1	3	3	TRUE	100	0	0	0	5538.7324916284142091172		0	0	0
5.0.4.0	win	081216	09:53:17	1	1	PracBoth	6	show_letter	5	800	0	0	2	J	1	(4/1) - 1	3	3	TRUE	100	0	0	0	5538.7324916284142091172		0	0	0
5.0.4.0	win	081216	09:53:17	1	1	PracBoth	6	show_math	8	1953	lbuttondown	0	2	J	2	(5*2) - 9	1	3	FALSE	100	0	0	0	5538.7324916284142091172		0	0	0
5.0.4.0	win	081216	09:53:17	1	1	PracBoth	6	solve_math	9	878	FALSE	1	2	J	2	(5*2) - 9	1	3	FALSE	100	0	0	0	5538.7324916284142091172		0	0	0
5.0.4.0	win	081216	09:53:17	1	1	PracBoth	6	show_letter	10	800	0	0	2	H	2	(5*2) - 9	1	3	FALSE	100	0	0	0	5538.7324916284142091172		0	0	0
5.0.4.0	win	081216	09:53:17	1	1	PracBoth	6	recall_letter	11	1733	J	0	2	H	2	(5*2) - 9	1	3	FALSE	100	0	0	0	5538.7324916284142091172	J	0	0	0
5.0.4.0	win	081216	09:53:17	1	1	PracBoth	6	recall_letter	12	1328	H	0	2	H	2	(5*2) - 9	1	3	FALSE	100	0	0	0	5538.7324916284142091172	JH	0	0	0
5.0.4.0	win	081216	09:53:17	1	1	PracBoth	6	recall_letter	13	747	exit	0	2	H	2	(5*2) - 9	1	3	FALSE	100	0	0	0	5538.7324916284142091172	JH	0	0	0
5.0.4.0	win	081216	09:53:17	1	1	PracBoth	6	letter_feedback	14	1500	0	0	2	H	2	(5*2) - 9	1	3	FALSE	100	0	0	0	5538.7324916284142091172	JH	2	1	2
5.0.4.0	win	081216	09:53:17	1	1	PracBoth	6	show_math	20	3135	lbuttondown	0	2	H	3	(4/4) - 0	1	10	FALSE	100	0	0	0	5538.7324916284142091172		2	1	2
5.0.4.0	win	081216	09:53:17	1	1	PracBoth	6	solve_math	21	1173	FALSE	1	2	H	3	(4/4) - 0	1	10	FALSE	100	0	0	0	5538.7324916284142091172		2	1	2
5.0.4.0	win	081216	09:53:17	1	1	PracBoth	6	show_letter	22	800	0	0	2	L	3	(4/4) - 0	1	10	FALSE	100	0	0	0	5538.7324916284142091172		2	1	2
5.0.4.0	win	081216	09:53:17	1	1	PracBoth	6	show_math	24	1919	lbuttondown	0	2	L	4	(3/3) + 8	9	9	TRUE	100	0	0	0	5538.7324916284142091172		2	1	2
5.0.4.0	win	081216	09:53:17	1	1	PracBoth	6	solve_math	25	814	TRUE	1	2	L	4	(3/3) + 8	9	9	TRUE	100	0	0	0	5538.7324916284142091172		2	1	2
5.0.4.0	win	081216	09:53:17	1	1	PracBoth	6	show_letter	26	800	0	0	2	R	4	(3/3) + 8	9	9	TRUE	100	0	0	0	5538.7324916284142091172		2	1	2
5.0.4.0	win	081216	09:53:17	1	1	PracBoth	6	recall_letter	27	1408	L	0	2	R	4	(3/3) + 8	9	9	TRUE	100	0	0	0	5538.7324916284142091172	L	2	1	2
5.0.4.0	win	081216	09:53:17	1	1	PracBoth	6	recall_letter	28	512	R	0	2	R	4	(3/3) + 8	9	9	TRUE	100	0	0	0	5538.7324916284142091172	LR	2	1	2
5.0.4.0	win	081216	09:53:17	1	1	PracBoth	6	recall_letter	29	556	exit	0	2	R	4	(3/3) + 8	9	9	TRUE	100	0	0	0	5538.7324916284142091172	LR	2	1	2
5.0.4.0	win	081216	09:53:17	1	1	PracBoth	6	letter_feedback	30	1500	0	0	2	R	4	(3/3) + 8	9	9	TRUE	100	0	0	0	5538.7324916284142091172	LR	4	2	4
5.0.4.0	win	081216	09:53:17	1	1	PracBoth	6	show_math	33	3336	lbuttondown	0	2	R	5	(8/1) - 4	4	4	TRUE	100	0	0	0	5538.7324916284142091172		4	2	4
5.0.4.0	win	081216	09:53:17	1	1	PracBoth	6	solve_math	34	806	TRUE	1	2	R	5	(8/1) - 4	4	4	TRUE	100	0	0	0	5538.7324916284142091172		4	2	4
5.0.4.0	win	081216	09:53:17	1	1	PracBoth	6	show_letter	35	800	0	0	2	S	5	(8/1) - 4	4	4	TRUE	100	0	0	0	5538.7324916284142091172		4	2	4
5.0.4.0	win	081216	09:53:17	1	1	PracBoth	6	show_math	37	1672	lbuttondown	0	2	S	6	(6*2) - 5	7	7	TRUE	100	0	0	0	5538.7324916284142091172		4	2	4
5.0.4.0	win	081216	09:53:17	1	1	PracBoth	6	solve_math	38	792	TRUE	1	2	S	6	(6*2) - 5	7	7	TRUE	100	0	0	0	5538.7324916284142091172		4	2	4
5.0.4.0	win	081216	09:53:17	1	1	PracBoth	6	show_letter	39	800	0	0	2	H	6	(6*2) - 5	7	7	TRUE	100	0	0	0	5538.7324916284142091172		4	2	4
5.0.4.0	win	081216	09:53:17	1	1	PracBoth	6	recall_letter	40	1459	S	0	2	H	6	(6*2) - 5	7	7	TRUE	100	0	0	0	5538.7324916284142091172	S	4	2	4
5.0.4.0	win	081216	09:53:17	1	1	PracBoth	6	recall_letter	41	313	H	0	2	H	6	(6*2) - 5	7	7	TRUE	100	0	0	0	5538.7324916284142091172	SH	4	2	4
5.0.4.0	win	081216	09:53:17	1	1	PracBoth	6	recall_letter	42	453	exit	0	2	H	6	(6*2) - 5	7	7	TRUE	100	0	0	0	5538.7324916284142091172	SH	4	2	4
5.0.4.0	win	081216	09:53:17	1	1	PracBoth	6	letter_feedback	43	1500	0	0	2	H	6	(6*2) - 5	7	7	TRUE	100	0	0	0	5538.7324916284142091172	SH	6	3	6
5.0.4.0	win	081216	09:53:17	1	1	TestBoth	8	show_math	3	2933	lbuttondown	0	7	H	1	(1*9) + 6	15	15	TRUE	0	0	0	0	5538.7324916284142091172		0	0	0
5.0.4.0	win	081216	09:53:17	1	1	TestBoth	8	solve_math	4	899	TRUE	1	7	H	1	(1*9) + 6	15	15	TRUE	100	0	0	0	5538.7324916284142091172		0	0	0
5.0.4.0	win	081216	09:53:17	1	1	TestBoth	8	show_letter	5	800	0	0	7	Q	1	(1*9) + 6	15	15	TRUE	100	0	0	0	5538.7324916284142091172		0	0	0
5.0.4.0	win	081216	09:53:17	1	1	TestBoth	8	show_math	8	2576	lbuttondown	0	7	Q	2	(9/1) + 7	16	24	FALSE	100	0	0	0	5538.7324916284142091172		0	0	0
5.0.4.0	win	081216	09:53:17	1	1	TestBoth	8	solve_math	9	749	FALSE	1	7	Q	2	(9/1) + 7	16	24	FALSE	100	0	0	0	5538.7324916284142091172		0	0	0
5.0.4.0	win	081216	09:53:17	1	1	TestBoth	8	show_letter	10	800	0	0	7	H	2	(9/1) + 7	16	24	FALSE	100	0	0	0	5538.7324916284142091172		0	0	0
5.0.4.0	win	081216	09:53:17	1	1	TestBoth	8	show_math	13	1936	lbuttondown	0	7	H	3	(2*4) + 1	9	2	FALSE	100	0	0	0	5538.7324916284142091172		0	0	0
5.0.4.0	win	081216	09:53:17	1	1	TestBoth	8	solve_math	14	710	FALSE	1	7	H	3	(2*4) + 1	9	2	FALSE	100	0	0	0	5538.7324916284142091172		0	0	0
5.0.4.0	win	081216	09:53:17	1	1	TestBoth	8	show_letter	15	800	0	0	7	R	3	(2*4) + 1	9	2	FALSE	100	0	0	0	5538.7324916284142091172		0	0	0
5.0.4.0	win	081216	09:53:17	1	1	TestBoth	8	show_math	18	3011	lbuttondown	0	7	R	4	(2*6) + 5	17	14	FALSE	100	0	0	0	5538.7324916284142091172		0	0	0
5.0.4.0	win	081216	09:53:17	1	1	TestBoth	8	solve_math	19	1054	FALSE	1	7	R	4	(2*6) + 5	17	14	FALSE	100	0	0	0	5538.7324916284142091172		0	0	0
5.0.4.0	win	081216	09:53:17	1	1	TestBoth	8	show_letter	20	800	0	0	7	L	4	(2*6) + 5	17	14	FALSE	100	0	0	0	5538.7324916284142091172		0	0	0
5.0.4.0	win	081216	09:53:17	1	1	TestBoth	8	show_math	22	2557	lbuttondown	0	7	L	5	(7/7) + 4	5	5	TRUE	100	0	0	0	5538.7324916284142091172		0	0	0
5.0.4.0	win	081216	09:53:17	1	1	TestBoth	8	solve_math	23	770	TRUE	1	7	L	5	(7/7) + 4	5	5	TRUE	100	0	0	0	5538.7324916284142091172		0	0	0
5.0.4.0	win	081216	09:53:17	1	1	TestBoth	8	show_letter	24	800	0	0	7	Y	5	(7/7) + 4	5	5	TRUE	100	0	0	0	5538.7324916284142091172		0	0	0
5.0.4.0	win	081216	09:53:17	1	1	TestBoth	8	show_math	27	2916	lbuttondown	0	7	Y	6	(5*3) - 3	12	6	FALSE	100	0	0	0	5538.7324916284142091172		0	0	0
5.0.4.0	win	081216	09:53:17	1	1	TestBoth	8	solve_math	28	939	FALSE	1	7	Y	6	(5*3) - 3	12	6	FALSE	100	0	0	0	5538.7324916284142091172		0	0	0
5.0.4.0	win	081216	09:53:17	1	1	TestBoth	8	show_letter	29	800	0	0	7	K	6	(5*3) - 3	12	6	FALSE	100	0	0	0	5538.7324916284142091172		0	0	0
5.0.4.0	win	081216	09:53:17	1	1	TestBoth	8	show_math	32	5539	0	0	7	K	7	(3*2) + 9	15	6	FALSE	100	1	0	1	5538.7324916284142091172		0	0	0
5.0.4.0	win	081216	09:53:17	1	1	TestBoth	8	show_letter	33	800	0	0	7	P	7	(3*2) + 9	15	6	FALSE	100	1	0	1	5538.7324916284142091172		0	0	0
5.0.4.0	win	081216	09:53:17	1	1	TestBoth	8	recall_letter	34	2923	Q	0	7	P	7	(3*2) + 9	15	6	FALSE	100	1	0	1	5538.7324916284142091172	Q	0	0	0
5.0.4.0	win	081216	09:53:17	1	1	TestBoth	8	recall_letter	35	446	H	0	7	P	7	(3*2) + 9	15	6	FALSE	100	1	0	1	5538.7324916284142091172	QH	0	0	0
5.0.4.0	win	081216	09:53:17	1	1	TestBoth	8	recall_letter	36	597	R	0	7	P	7	(3*2) + 9	15	6	FALSE	100	1	0	1	5538.7324916284142091172	QHR	0	0	0
5.0.4.0	win	081216	09:53:17	1	1	TestBoth	8	recall_letter	37	358	L	0	7	P	7	(3*2) + 9	15	6	FALSE	100	1	0	1	5538.7324916284142091172	QHRL	0	0	0
5.0.4.0	win	081216	09:53:17	1	1	TestBoth	8	recall_letter	38	976	Y	0	7	P	7	(3*2) + 9	15	6	FALSE	100	1	0	1	5538.7324916284142091172	QHRLY	0	0	0
5.0.4.0	win	081216	09:53:17	1	1	TestBoth	8	recall_letter	39	473	K	0	7	P	7	(3*2) + 9	15	6	FALSE	100	1	0	1	5538.7324916284142091172	QHRLYK	0	0	0
5.0.4.0	win	081216	09:53:17	1	1	TestBoth	8	recall_letter	40	350	P	0	7	P	7	(3*2) + 9	15	6	FALSE	100	1	0	1	5538.7324916284142091172	QHRLYKP	0	0	0
5.0.4.0	win	081216	09:53:17	1	1	TestBoth	8	recall_letter	41	616	exit	0	7	P	7	(3*2) + 9	15	6	FALSE	100	1	0	1	5538.7324916284142091172	QHRLYKP	0	0	0
5.0.4.0	win	081216	09:53:17	1	1	TestBoth	8	letter_feedback	42	1500	0	0	7	P	7	(3*2) + 9	15	6	FALSE	100	1	0	1	5538.7324916284142091172	QHRLYKP	7	1	7
5.0.4.0	win	081216	09:53:17	1	1	TestBoth	8	show_math	47	2489	lbuttondown	0	3	P	8	(5/5) + 1	2	7	FALSE	100	1	0	1	5538.7324916284142091172		7	1	7
5.0.4.0	win	081216	09:53:17	1	1	TestBoth	8	solve_math	48	1089	FALSE	1	3	P	8	(5/5) + 1	2	7	FALSE	88	1	0	1	5538.7324916284142091172		7	1	7
5.0.4.0	win	081216	09:53:17	1	1	TestBoth	8	show_letter	49	800	0	0	3	Q	8	(5/5) + 1	2	7	FALSE	88	1	0	1	5538.7324916284142091172		7	1	7
5.0.4.0	win	081216	09:53:17	1	1	TestBoth	8	show_math	51	1327	lbuttondown	0	3	Q	9	(2*7) - 7	7	7	TRUE	88	1	0	1	5538.7324916284142091172		7	1	7
5.0.4.0	win	081216	09:53:17	1	1	TestBoth	8	solve_math	52	837	TRUE	1	3	Q	9	(2*7) - 7	7	7	TRUE	89	1	0	1	5538.7324916284142091172		7	1	7
5.0.4.0	win	081216	09:53:17	1	1	TestBoth	8	show_letter	53	800	0	0	3	L	9	(2*7) - 7	7	7	TRUE	89	1	0	1	5538.7324916284142091172		7	1	7
5.0.4.0	win	081216	09:53:17	1	1	TestBoth	8	show_math	55	2805	lbuttondown	0	3	L	10	(6/2) + 3	6	6	TRUE	89	1	0	1	5538.7324916284142091172		7	1	7
5.0.4.0	win	081216	09:53:17	1	1	TestBoth	8	solve_math	56	793	TRUE	1	3	L	10	(6/2) + 3	6	6	TRUE	90	1	0	1	5538.7324916284142091172		7	1	7
5.0.4.0	win	081216	09:53:17	1	1	TestBoth	8	show_letter	57	800	0	0	3	F	10	(6/2) + 3	6	6	TRUE	90	1	0	1	5538.7324916284142091172		7	1	7
5.0.4.0	win	081216	09:53:17	1	1	TestBoth	8	recall_letter	58	1611	Q	0	3	F	10	(6/2) + 3	6	6	TRUE	90	1	0	1	5538.7324916284142091172	Q	7	1	7
5.0.4.0	win	081216	09:53:17	1	1	TestBoth	8	recall_letter	59	243	L	0	3	F	10	(6/2) + 3	6	6	TRUE	90	1	0	1	5538.7324916284142091172	QL	7	1	7
5.0.4.0	win	081216	09:53:17	1	1	TestBoth	8	recall_letter	60	610	F	0	3	F	10	(6/2) + 3	6	6	TRUE	90	1	0	1	5538.7324916284142091172	QLF	7	1	7
5.0.4.0	win	081216	09:53:17	1	1	TestBoth	8	recall_letter	61	762	exit	0	3	F	10	(6/2) + 3	6	6	TRUE	90	1	0	1	5538.7324916284142091172	QLF	7	1	7
5.0.4.0	win	081216	09:53:17	1	1	TestBoth	8	letter_feedback	62	1500	0	0	3	F	10	(6/2) + 3	6	6	TRUE	90	1	0	1	5538.7324916284142091172	QLF	10	2	10
5.0.4.0	win	081216	09:53:17	1	1	TestBoth	8	show_math	67	2109	lbuttondown	0	4	F	11	(1/1) + 1	2	8	FALSE	90	1	0	1	5538.7324916284142091172		10	2	10
5.0.4.0	win	081216	09:53:17	1	1	TestBoth	8	solve_math	68	805	FALSE	1	4	F	11	(1/1) + 1	2	8	FALSE	91	1	0	1	5538.7324916284142091172		10	2	10
5.0.4.0	win	081216	09:53:17	1	1	TestBoth	8	show_letter	69	800	0	0	4	F	11	(1/1) + 1	2	8	FALSE	91	1	0	1	5538.7324916284142091172		10	2	10
5.0.4.0	win	081216	09:53:17	1	1	TestBoth	8	show_math	71	3222	lbuttondown	0	4	F	12	(6/3) + 8	10	10	TRUE	91	1	0	1	5538.7324916284142091172		10	2	10
5.0.4.0	win	081216	09:53:17	1	1	TestBoth	8	solve_math	72	816	TRUE	1	4	F	12	(6/3) + 8	10	10	TRUE	92	1	0	1	5538.7324916284142091172		10	2	10
5.0.4.0	win	081216	09:53:17	1	1	TestBoth	8	show_letter	73	800	0	0	4	S	12	(6/3) + 8	10	10	TRUE	92	1	0	1	5538.7324916284142091172		10	2	10
5.0.4.0	win	081216	09:53:17	1	1	TestBoth	8	show_math	77	2184	lbuttondown	0	4	S	13	(2*2) - 2	2	2	TRUE	92	1	0	1	5538.7324916284142091172		10	2	10
5.0.4.0	win	081216	09:53:17	1	1	TestBoth	8	solve_math	78	708	TRUE	1	4	S	13	(2*2) - 2	2	2	TRUE	92	1	0	1	5538.7324916284142091172		10	2	10
5.0.4.0	win	081216	09:53:17	1	1	TestBoth	8	show_letter	79	800	0	0	4	H	13	(2*2) - 2	2	2	TRUE	92	1	0	1	5538.7324916284142091172		10	2	10
5.0.4.0	win	081216	09:53:17	1	1	TestBoth	8	show_math	82	1576	lbuttondown	0	4	H	14	(4*2) - 1	7	10	FALSE	92	1	0	1	5538.7324916284142091172		10	2	10
5.0.4.0	win	081216	09:53:17	1	1	TestBoth	8	solve_math	83	629	FALSE	1	4	H	14	(4*2) - 1	7	10	FALSE	93	1	0	1	5538.7324916284142091172		10	2	10
5.0.4.0	win	081216	09:53:17	1	1	TestBoth	8	show_letter	84	800	0	0	4	P	14	(4*2) - 1	7	10	FALSE	93	1	0	1	5538.7324916284142091172		10	2	10
5.0.4.0	win	081216	09:53:17	1	1	TestBoth	8	recall_letter	85	1086	F	0	4	P	14	(4*2) - 1	7	10	FALSE	93	1	0	1	5538.7324916284142091172	F	10	2	10
5.0.4.0	win	081216	09:53:17	1	1	TestBoth	8	recall_letter	86	331	S	0	4	P	14	(4*2) - 1	7	10	FALSE	93	1	0	1	5538.7324916284142091172	FS	10	2	10
5.0.4.0	win	081216	09:53:17	1	1	TestBoth	8	recall_letter	87	326	H	0	4	P	14	(4*2) - 1	7	10	FALSE	93	1	0	1	5538.7324916284142091172	FSH	10	2	10
5.0.4.0	win	081216	09:53:17	1	1	TestBoth	8	recall_letter	88	834	P	0	4	P	14	(4*2) - 1	7	10	FALSE	93	1	0	1	5538.7324916284142091172	FSHP	10	2	10
5.0.4.0	win	081216	09:53:17	1	1	TestBoth	8	recall_letter	89	528	exit	0	4	P	14	(4*2) - 1	7	10	FALSE	93	1	0	1	5538.7324916284142091172	FSHP	10	2	10
5.0.4.0	win	081216	09:53:17	1	1	TestBoth	8	letter_feedback	90	1500	0	0	4	P	14	(4*2) - 1	7	10	FALSE	93	1	0	1	5538.7324916284142091172	FSHP	14	3	14
5.0.4.0	win	081216	09:53:17	1	1	TestBoth	8	show_math	94	2654	lbuttondown	0	3	P	15	(1*7) + 2	9	7	FALSE	93	1	0	1	5538.7324916284142091172		14	3	14
5.0.4.0	win	081216	09:53:17	1	1	TestBoth	8	solve_math	95	983	FALSE	1	3	P	15	(1*7) + 2	9	7	FALSE	93	1	0	1	5538.7324916284142091172		14	3	14
5.0.4.0	win	081216	09:53:17	1	1	TestBoth	8	show_letter	96	800	0	0	3	P	15	(1*7) + 2	9	7	FALSE	93	1	0	1	5538.7324916284142091172		14	3	14
5.0.4.0	win	081216	09:53:17	1	1	TestBoth	8	show_math	99	1200	lbuttondown	0	3	P	16	(1*5) + 7	12	8	FALSE	93	1	0	1	5538.7324916284142091172		14	3	14
5.0.4.0	win	081216	09:53:17	1	1	TestBoth	8	solve_math	100	508	FALSE	1	3	P	16	(1*5) + 7	12	8	FALSE	94	1	0	1	5538.7324916284142091172		14	3	14
5.0.4.0	win	081216	09:53:17	1	1	TestBoth	8	show_letter	101	800	0	0	3	L	16	(1*5) + 7	12	8	FALSE	94	1	0	1	5538.7324916284142091172		14	3	14
5.0.4.0	win	081216	09:53:17	1	1	TestBoth	8	show_math	105	4223	lbuttondown	0	3	L	17	(2/1) - 2	0	0	TRUE	94	1	0	1	5538.7324916284142091172		14	3	14
5.0.4.0	win	081216	09:53:17	1	1	TestBoth	8	solve_math	106	994	TRUE	1	3	L	17	(2/1) - 2	0	0	TRUE	94	1	0	1	5538.7324916284142091172		14	3	14
5.0.4.0	win	081216	09:53:17	1	1	TestBoth	8	show_letter	107	800	0	0	3	T	17	(2/1) - 2	0	0	TRUE	94	1	0	1	5538.7324916284142091172		14	3	14
5.0.4.0	win	081216	09:53:17	1	1	TestBoth	8	recall_letter	108	1117	P	0	3	T	17	(2/1) - 2	0	0	TRUE	94	1	0	1	5538.7324916284142091172	P	14	3	14
5.0.4.0	win	081216	09:53:17	1	1	TestBoth	8	recall_letter	109	336	L	0	3	T	17	(2/1) - 2	0	0	TRUE	94	1	0	1	5538.7324916284142091172	PL	14	3	14
5.0.4.0	win	081216	09:53:17	1	1	TestBoth	8	recall_letter	110	531	T	0	3	T	17	(2/1) - 2	0	0	TRUE	94	1	0	1	5538.7324916284142091172	PLT	14	3	14
5.0.4.0	win	081216	09:53:17	1	1	TestBoth	8	recall_letter	111	806	exit	0	3	T	17	(2/1) - 2	0	0	TRUE	94	1	0	1	5538.7324916284142091172	PLT	14	3	14
5.0.4.0	win	081216	09:53:17	1	1	TestBoth	8	letter_feedback	112	1500	0	0	3	T	17	(2/1) - 2	0	0	TRUE	94	1	0	1	5538.7324916284142091172	PLT	17	4	17
5.0.4.0	win	081216	09:53:17	1	1	TestBoth	8	show_math	115	2169	lbuttondown	0	5	T	18	(3*3) - 6	3	3	TRUE	94	1	0	1	5538.7324916284142091172		17	4	17
5.0.4.0	win	081216	09:53:17	1	1	TestBoth	8	solve_math	116	853	TRUE	1	5	T	18	(3*3) - 6	3	3	TRUE	94	1	0	1	5538.7324916284142091172		17	4	17
5.0.4.0	win	081216	09:53:17	1	1	TestBoth	8	show_letter	117	800	0	0	5	F	18	(3*3) - 6	3	3	TRUE	94	1	0	1	5538.7324916284142091172		17	4	17
5.0.4.0	win	081216	09:53:17	1	1	TestBoth	8	show_math	120	3044	lbuttondown	0	5	F	19	(4*3) - 9	3	7	FALSE	94	1	0	1	5538.7324916284142091172		17	4	17
5.0.4.0	win	081216	09:53:17	1	1	TestBoth	8	solve_math	121	1086	FALSE	1	5	F	19	(4*3) - 9	3	7	FALSE	95	1	0	1	5538.7324916284142091172		17	4	17
5.0.4.0	win	081216	09:53:17	1	1	TestBoth	8	show_letter	122	800	0	0	5	L	19	(4*3) - 9	3	7	FALSE	95	1	0	1	5538.7324916284142091172		17	4	17
5.0.4.0	win	081216	09:53:17	1	1	TestBoth	8	show_math	124	1764	lbuttondown	0	5	L	20	(3*5) + 5	20	20	TRUE	95	1	0	1	5538.7324916284142091172		17	4	17
5.0.4.0	win	081216	09:53:17	1	1	TestBoth	8	solve_math	125	657	TRUE	1	5	L	20	(3*5) + 5	20	20	TRUE	95	1	0	1	5538.7324916284142091172		17	4	17
5.0.4.0	win	081216	09:53:17	1	1	TestBoth	8	show_letter	126	800	0	0	5	K	20	(3*5) + 5	20	20	TRUE	95	1	0	1	5538.7324916284142091172		17	4	17
5.0.4.0	win	081216	09:53:17	1	1	TestBoth	8	show_math	128	2248	lbuttondown	0	5	K	21	(8/2) - 3	1	1	TRUE	95	1	0	1	5538.7324916284142091172		17	4	17
5.0.4.0	win	081216	09:53:17	1	1	TestBoth	8	solve_math	129	866	TRUE	1	5	K	21	(8/2) - 3	1	1	TRUE	95	1	0	1	5538.7324916284142091172		17	4	17
5.0.4.0	win	081216	09:53:17	1	1	TestBoth	8	show_letter	130	800	0	0	5	H	21	(8/2) - 3	1	1	TRUE	95	1	0	1	5538.7324916284142091172		17	4	17
5.0.4.0	win	081216	09:53:17	1	1	TestBoth	8	show_math	132	3321	lbuttondown	0	5	H	22	(4/2) + 3	5	5	TRUE	95	1	0	1	5538.7324916284142091172		17	4	17
5.0.4.0	win	081216	09:53:17	1	1	TestBoth	8	solve_math	133	1112	TRUE	1	5	H	22	(4/2) + 3	5	5	TRUE	95	1	0	1	5538.7324916284142091172		17	4	17
5.0.4.0	win	081216	09:53:17	1	1	TestBoth	8	show_letter	134	800	0	0	5	N	22	(4/2) + 3	5	5	TRUE	95	1	0	1	5538.7324916284142091172		17	4	17
5.0.4.0	win	081216	09:53:17	1	1	TestBoth	8	recall_letter	135	1822	F	0	5	N	22	(4/2) + 3	5	5	TRUE	95	1	0	1	5538.7324916284142091172	F	17	4	17
5.0.4.0	win	081216	09:53:17	1	1	TestBoth	8	recall_letter	136	341	L	0	5	N	22	(4/2) + 3	5	5	TRUE	95	1	0	1	5538.7324916284142091172	FL	17	4	17
5.0.4.0	win	081216	09:53:17	1	1	TestBoth	8	recall_letter	137	488	K	0	5	N	22	(4/2) + 3	5	5	TRUE	95	1	0	1	5538.7324916284142091172	FLK	17	4	17
5.0.4.0	win	081216	09:53:17	1	1	TestBoth	8	recall_letter	138	388	H	0	5	N	22	(4/2) + 3	5	5	TRUE	95	1	0	1	5538.7324916284142091172	FLKH	17	4	17
5.0.4.0	win	081216	09:53:17	1	1	TestBoth	8	recall_letter	139	445	N	0	5	N	22	(4/2) + 3	5	5	TRUE	95	1	0	1	5538.7324916284142091172	FLKHN	17	4	17
5.0.4.0	win	081216	09:53:17	1	1	TestBoth	8	recall_letter	140	1076	exit	0	5	N	22	(4/2) + 3	5	5	TRUE	95	1	0	1	5538.7324916284142091172	FLKHN	17	4	17
5.0.4.0	win	081216	09:53:17	1	1	TestBoth	8	letter_feedback	141	1500	0	0	5	N	22	(4/2) + 3	5	5	TRUE	95	1	0	1	5538.7324916284142091172	FLKHN	22	5	22
5.0.4.0	win	081216	09:53:17	1	1	TestBoth	8	show_math	145	2595	lbuttondown	0	6	N	23	(1*3) + 5	8	9	FALSE	95	1	0	1	5538.7324916284142091172		22	5	22
5.0.4.0	win	081216	09:53:17	1	1	TestBoth	8	solve_math	146	839	FALSE	1	6	N	23	(1*3) + 5	8	9	FALSE	96	1	0	1	5538.7324916284142091172		22	5	22
5.0.4.0	win	081216	09:53:17	1	1	TestBoth	8	show_letter	147	800	0	0	6	N	23	(1*3) + 5	8	9	FALSE	96	1	0	1	5538.7324916284142091172		22	5	22
5.0.4.0	win	081216	09:53:17	1	1	TestBoth	8	show_math	151	1950	lbuttondown	0	6	N	24	(8/8) - 1	0	7	FALSE	96	1	0	1	5538.7324916284142091172		22	5	22
5.0.4.0	win	081216	09:53:17	1	1	TestBoth	8	solve_math	152	619	FALSE	1	6	N	24	(8/8) - 1	0	7	FALSE	96	1	0	1	5538.7324916284142091172		22	5	22
5.0.4.0	win	081216	09:53:17	1	1	TestBoth	8	show_letter	153	800	0	0	6	Y	24	(8/8) - 1	0	7	FALSE	96	1	0	1	5538.7324916284142091172		22	5	22
5.0.4.0	win	081216	09:53:17	1	1	TestBoth	8	show_math	155	2211	lbuttondown	0	6	Y	25	(8/4) - 2	0	0	TRUE	96	1	0	1	5538.7324916284142091172		22	5	22
5.0.4.0	win	081216	09:53:17	1	1	TestBoth	8	solve_math	156	815	FALSE	0	6	Y	25	(8/4) - 2	0	0	TRUE	92	2	1	1	5538.7324916284142091172		22	5	22
5.0.4.0	win	081216	09:53:17	1	1	TestBoth	8	show_letter	157	800	0	0	6	R	25	(8/4) - 2	0	0	TRUE	92	2	1	1	5538.7324916284142091172		22	5	22
5.0.4.0	win	081216	09:53:17	1	1	TestBoth	8	show_math	160	1951	lbuttondown	0	6	R	26	(1*2) + 4	6	5	FALSE	92	2	1	1	5538.7324916284142091172		22	5	22
5.0.4.0	win	081216	09:53:17	1	1	TestBoth	8	solve_math	161	717	FALSE	1	6	R	26	(1*2) + 4	6	5	FALSE	92	2	1	1	5538.7324916284142091172		22	5	22
5.0.4.0	win	081216	09:53:17	1	1	TestBoth	8	show_letter	162	800	0	0	6	F	26	(1*2) + 4	6	5	FALSE	92	2	1	1	5538.7324916284142091172		22	5	22
5.0.4.0	win	081216	09:53:17	1	1	TestBoth	8	show_math	165	3993	lbuttondown	0	6	F	27	(8*2) + 9	25	20	FALSE	92	2	1	1	5538.7324916284142091172		22	5	22
5.0.4.0	win	081216	09:53:17	1	1	TestBoth	8	solve_math	166	797	FALSE	1	6	F	27	(8*2) + 9	25	20	FALSE	93	2	1	1	5538.7324916284142091172		22	5	22
5.0.4.0	win	081216	09:53:17	1	1	TestBoth	8	show_letter	167	800	0	0	6	L	27	(8*2) + 9	25	20	FALSE	93	2	1	1	5538.7324916284142091172		22	5	22
5.0.4.0	win	081216	09:53:17	1	1	TestBoth	8	show_math	173	2372	lbuttondown	0	6	L	28	(6/6) + 1	2	0	FALSE	93	2	1	1	5538.7324916284142091172		22	5	22
5.0.4.0	win	081216	09:53:17	1	1	TestBoth	8	solve_math	174	1192	FALSE	1	6	L	28	(6/6) + 1	2	0	FALSE	93	2	1	1	5538.7324916284142091172		22	5	22
5.0.4.0	win	081216	09:53:17	1	1	TestBoth	8	show_letter	175	800	0	0	6	Q	28	(6/6) + 1	2	0	FALSE	93	2	1	1	5538.7324916284142091172		22	5	22
5.0.4.0	win	081216	09:53:17	1	1	TestBoth	8	recall_letter	176	1996	N	0	6	Q	28	(6/6) + 1	2	0	FALSE	93	2	1	1	5538.7324916284142091172	N	22	5	22
5.0.4.0	win	081216	09:53:17	1	1	TestBoth	8	recall_letter	177	461	Y	0	6	Q	28	(6/6) + 1	2	0	FALSE	93	2	1	1	5538.7324916284142091172	NY	22	5	22
5.0.4.0	win	081216	09:53:17	1	1	TestBoth	8	recall_letter	178	251	R	0	6	Q	28	(6/6) + 1	2	0	FALSE	93	2	1	1	5538.7324916284142091172	NYR	22	5	22
5.0.4.0	win	081216	09:53:17	1	1	TestBoth	8	recall_letter	179	425	F	0	6	Q	28	(6/6) + 1	2	0	FALSE	93	2	1	1	5538.7324916284142091172	NYRF	22	5	22
5.0.4.0	win	081216	09:53:17	1	1	TestBoth	8	recall_letter	180	440	L	0	6	Q	28	(6/6) + 1	2	0	FALSE	93	2	1	1	5538.7324916284142091172	NYRFL	22	5	22
5.0.4.0	win	081216	09:53:17	1	1	TestBoth	8	recall_letter	181	278	Q	0	6	Q	28	(6/6) + 1	2	0	FALSE	93	2	1	1	5538.7324916284142091172	NYRFLQ	22	5	22
5.0.4.0	win	081216	09:53:17	1	1	TestBoth	8	recall_letter	182	420	exit	0	6	Q	28	(6/6) + 1	2	0	FALSE	93	2	1	1	5538.7324916284142091172	NYRFLQ	22	5	22
5.0.4.0	win	081216	09:53:17	1	1	TestBoth	8	letter_feedback	183	1500	0	0	6	Q	28	(6/6) + 1	2	0	FALSE	93	2	1	1	5538.7324916284142091172	NYRFLQ	28	6	28
5.0.4.0	win	081216	09:53:17	1	1	TestBoth	8	show_math	186	3590	lbuttondown	0	5	Q	29	(3/1) + 7	10	10	TRUE	93	2	1	1	5538.7324916284142091172		28	6	28
5.0.4.0	win	081216	09:53:17	1	1	TestBoth	8	solve_math	187	738	TRUE	1	5	Q	29	(3/1) + 7	10	10	TRUE	93	2	1	1	5538.7324916284142091172		28	6	28
5.0.4.0	win	081216	09:53:17	1	1	TestBoth	8	show_letter	188	800	0	0	5	H	29	(3/1) + 7	10	10	TRUE	93	2	1	1	5538.7324916284142091172		28	6	28
5.0.4.0	win	081216	09:53:17	1	1	TestBoth	8	show_math	190	3718	lbuttondown	0	5	H	30	(7*2) - 6	8	8	TRUE	93	2	1	1	5538.7324916284142091172		28	6	28
5.0.4.0	win	081216	09:53:17	1	1	TestBoth	8	solve_math	191	740	TRUE	1	5	H	30	(7*2) - 6	8	8	TRUE	93	2	1	1	5538.7324916284142091172		28	6	28
5.0.4.0	win	081216	09:53:17	1	1	TestBoth	8	show_letter	192	800	0	0	5	J	30	(7*2) - 6	8	8	TRUE	93	2	1	1	5538.7324916284142091172		28	6	28
5.0.4.0	win	081216	09:53:17	1	1	TestBoth	8	show_math	195	3040	lbuttondown	0	5	J	31	(3*4) + 2	14	18	FALSE	93	2	1	1	5538.7324916284142091172		28	6	28
5.0.4.0	win	081216	09:53:17	1	1	TestBoth	8	solve_math	196	690	FALSE	1	5	J	31	(3*4) + 2	14	18	FALSE	94	2	1	1	5538.7324916284142091172		28	6	28
5.0.4.0	win	081216	09:53:17	1	1	TestBoth	8	show_letter	197	800	0	0	5	R	31	(3*4) + 2	14	18	FALSE	94	2	1	1	5538.7324916284142091172		28	6	28
5.0.4.0	win	081216	09:53:17	1	1	TestBoth	8	show_math	199	2496	lbuttondown	0	5	R	32	(6/1) + 1	7	7	TRUE	94	2	1	1	5538.7324916284142091172		28	6	28
5.0.4.0	win	081216	09:53:17	1	1	TestBoth	8	solve_math	200	608	TRUE	1	5	R	32	(6/1) + 1	7	7	TRUE	94	2	1	1	5538.7324916284142091172		28	6	28
5.0.4.0	win	081216	09:53:17	1	1	TestBoth	8	show_letter	201	800	0	0	5	F	32	(6/1) + 1	7	7	TRUE	94	2	1	1	5538.7324916284142091172		28	6	28
5.0.4.0	win	081216	09:53:17	1	1	TestBoth	8	show_math	204	1617	lbuttondown	0	5	F	33	(2*5) + 6	16	15	FALSE	94	2	1	1	5538.7324916284142091172		28	6	28
5.0.4.0	win	081216	09:53:17	1	1	TestBoth	8	solve_math	205	620	FALSE	1	5	F	33	(2*5) + 6	16	15	FALSE	94	2	1	1	5538.7324916284142091172		28	6	28
5.0.4.0	win	081216	09:53:17	1	1	TestBoth	8	show_letter	206	800	0	0	5	Q	33	(2*5) + 6	16	15	FALSE	94	2	1	1	5538.7324916284142091172		28	6	28
5.0.4.0	win	081216	09:53:17	1	1	TestBoth	8	recall_letter	207	1189	H	0	5	Q	33	(2*5) + 6	16	15	FALSE	94	2	1	1	5538.7324916284142091172	H	28	6	28
5.0.4.0	win	081216	09:53:17	1	1	TestBoth	8	recall_letter	208	1134	J	0	5	Q	33	(2*5) + 6	16	15	FALSE	94	2	1	1	5538.7324916284142091172	HJ	28	6	28
5.0.4.0	win	081216	09:53:17	1	1	TestBoth	8	recall_letter	209	377	R	0	5	Q	33	(2*5) + 6	16	15	FALSE	94	2	1	1	5538.7324916284142091172	HJR	28	6	28
5.0.4.0	win	081216	09:53:17	1	1	TestBoth	8	recall_letter	210	794	F	0	5	Q	33	(2*5) + 6	16	15	FALSE	94	2	1	1	5538.7324916284142091172	HJRF	28	6	28
5.0.4.0	win	081216	09:53:17	1	1	TestBoth	8	recall_letter	211	411	Q	0	5	Q	33	(2*5) + 6	16	15	FALSE	94	2	1	1	5538.7324916284142091172	HJRFQ	28	6	28
5.0.4.0	win	081216	09:53:17	1	1	TestBoth	8	recall_letter	212	474	exit	0	5	Q	33	(2*5) + 6	16	15	FALSE	94	2	1	1	5538.7324916284142091172	HJRFQ	28	6	28
5.0.4.0	win	081216	09:53:17	1	1	TestBoth	8	letter_feedback	213	1500	0	0	5	Q	33	(2*5) + 6	16	15	FALSE	94	2	1	1	5538.7324916284142091172	HJRFQ	33	7	33
5.0.4.0	win	081216	09:53:17	1	1	TestBoth	8	show_math	216	1635	lbuttondown	0	4	Q	34	(9/3) - 2	1	1	TRUE	94	2	1	1	5538.7324916284142091172		33	7	33
5.0.4.0	win	081216	09:53:17	1	1	TestBoth	8	solve_math	217	725	TRUE	1	4	Q	34	(9/3) - 2	1	1	TRUE	94	2	1	1	5538.7324916284142091172		33	7	33
5.0.4.0	win	081216	09:53:17	1	1	TestBoth	8	show_letter	218	800	0	0	4	K	34	(9/3) - 2	1	1	TRUE	94	2	1	1	5538.7324916284142091172		33	7	33
5.0.4.0	win	081216	09:53:17	1	1	TestBoth	8	show_math	220	2969	lbuttondown	0	4	K	35	(1*8) + 3	11	11	TRUE	94	2	1	1	5538.7324916284142091172		33	7	33
5.0.4.0	win	081216	09:53:17	1	1	TestBoth	8	solve_math	221	542	TRUE	1	4	K	35	(1*8) + 3	11	11	TRUE	94	2	1	1	5538.7324916284142091172		33	7	33
5.0.4.0	win	081216	09:53:17	1	1	TestBoth	8	show_letter	222	800	0	0	4	T	35	(1*8) + 3	11	11	TRUE	94	2	1	1	5538.7324916284142091172		33	7	33
5.0.4.0	win	081216	09:53:17	1	1	TestBoth	8	show_math	224	1938	lbuttondown	0	4	T	36	(1*4) + 8	12	12	TRUE	94	2	1	1	5538.7324916284142091172		33	7	33
5.0.4.0	win	081216	09:53:17	1	1	TestBoth	8	solve_math	225	600	TRUE	1	4	T	36	(1*4) + 8	12	12	TRUE	94	2	1	1	5538.7324916284142091172		33	7	33
5.0.4.0	win	081216	09:53:17	1	1	TestBoth	8	show_letter	226	800	0	0	4	H	36	(1*4) + 8	12	12	TRUE	94	2	1	1	5538.7324916284142091172		33	7	33
5.0.4.0	win	081216	09:53:17	1	1	TestBoth	8	show_math	233	1630	lbuttondown	0	4	H	37	(1*6) - 6	0	2	FALSE	94	2	1	1	5538.7324916284142091172		33	7	33
5.0.4.0	win	081216	09:53:17	1	1	TestBoth	8	solve_math	234	896	FALSE	1	4	H	37	(1*6) - 6	0	2	FALSE	95	2	1	1	5538.7324916284142091172		33	7	33
5.0.4.0	win	081216	09:53:17	1	1	TestBoth	8	show_letter	235	800	0	0	4	Q	37	(1*6) - 6	0	2	FALSE	95	2	1	1	5538.7324916284142091172		33	7	33
5.0.4.0	win	081216	09:53:17	1	1	TestBoth	8	recall_letter	236	2096	K	0	4	Q	37	(1*6) - 6	0	2	FALSE	95	2	1	1	5538.7324916284142091172	K	33	7	33
5.0.4.0	win	081216	09:53:17	1	1	TestBoth	8	recall_letter	237	652	T	0	4	Q	37	(1*6) - 6	0	2	FALSE	95	2	1	1	5538.7324916284142091172	KT	33	7	33
5.0.4.0	win	081216	09:53:17	1	1	TestBoth	8	recall_letter	238	498	H	0	4	Q	37	(1*6) - 6	0	2	FALSE	95	2	1	1	5538.7324916284142091172	KTH	33	7	33
5.0.4.0	win	081216	09:53:17	1	1	TestBoth	8	recall_letter	239	367	Q	0	4	Q	37	(1*6) - 6	0	2	FALSE	95	2	1	1	5538.7324916284142091172	KTHQ	33	7	33
5.0.4.0	win	081216	09:53:17	1	1	TestBoth	8	recall_letter	240	1216	exit	0	4	Q	37	(1*6) - 6	0	2	FALSE	95	2	1	1	5538.7324916284142091172	KTHQ	33	7	33
5.0.4.0	win	081216	09:53:17	1	1	TestBoth	8	letter_feedback	241	1500	0	0	4	Q	37	(1*6) - 6	0	2	FALSE	95	2	1	1	5538.7324916284142091172	KTHQ	37	8	37
5.0.4.0	win	081216	09:53:17	1	1	TestBoth	8	show_math	245	2706	lbuttondown	0	7	Q	38	(2*3) - 4	2	2	TRUE	95	2	1	1	5538.7324916284142091172		37	8	37
5.0.4.0	win	081216	09:53:17	1	1	TestBoth	8	solve_math	246	810	TRUE	1	7	Q	38	(2*3) - 4	2	2	TRUE	95	2	1	1	5538.7324916284142091172		37	8	37
5.0.4.0	win	081216	09:53:17	1	1	TestBoth	8	show_letter	247	800	0	0	7	Q	38	(2*3) - 4	2	2	TRUE	95	2	1	1	5538.7324916284142091172		37	8	37
5.0.4.0	win	081216	09:53:17	1	1	TestBoth	8	show_math	251	1290	lbuttondown	0	7	Q	39	(7/1) - 6	1	8	FALSE	95	2	1	1	5538.7324916284142091172		37	8	37
5.0.4.0	win	081216	09:53:17	1	1	TestBoth	8	solve_math	252	650	FALSE	1	7	Q	39	(7/1) - 6	1	8	FALSE	95	2	1	1	5538.7324916284142091172		37	8	37
5.0.4.0	win	081216	09:53:17	1	1	TestBoth	8	show_letter	253	800	0	0	7	H	39	(7/1) - 6	1	8	FALSE	95	2	1	1	5538.7324916284142091172		37	8	37
5.0.4.0	win	081216	09:53:17	1	1	TestBoth	8	show_math	259	3687	lbuttondown	0	7	H	40	(9/9) - 0	1	3	FALSE	95	2	1	1	5538.7324916284142091172		37	8	37
5.0.4.0	win	081216	09:53:17	1	1	TestBoth	8	solve_math	260	815	FALSE	1	7	H	40	(9/9) - 0	1	3	FALSE	95	2	1	1	5538.7324916284142091172		37	8	37
5.0.4.0	win	081216	09:53:17	1	1	TestBoth	8	show_letter	261	800	0	0	7	T	40	(9/9) - 0	1	3	FALSE	95	2	1	1	5538.7324916284142091172		37	8	37
5.0.4.0	win	081216	09:53:17	1	1	TestBoth	8	show_math	265	2039	lbuttondown	0	7	T	41	(2/2) - 1	0	0	TRUE	95	2	1	1	5538.7324916284142091172		37	8	37
5.0.4.0	win	081216	09:53:17	1	1	TestBoth	8	solve_math	266	633	TRUE	1	7	T	41	(2/2) - 1	0	0	TRUE	95	2	1	1	5538.7324916284142091172		37	8	37
5.0.4.0	win	081216	09:53:17	1	1	TestBoth	8	show_letter	267	800	0	0	7	P	41	(2/2) - 1	0	0	TRUE	95	2	1	1	5538.7324916284142091172		37	8	37
5.0.4.0	win	081216	09:53:17	1	1	TestBoth	8	show_math	270	2352	lbuttondown	0	7	P	42	(5/1) + 5	10	5	FALSE	95	2	1	1	5538.7324916284142091172		37	8	37
5.0.4.0	win	081216	09:53:17	1	1	TestBoth	8	solve_math	271	742	FALSE	1	7	P	42	(5/1) + 5	10	5	FALSE	95	2	1	1	5538.7324916284142091172		37	8	37
5.0.4.0	win	081216	09:53:17	1	1	TestBoth	8	show_letter	272	800	0	0	7	N	42	(5/1) + 5	10	5	FALSE	95	2	1	1	5538.7324916284142091172		37	8	37
5.0.4.0	win	081216	09:53:17	1	1	TestBoth	8	show_math	274	1434	lbuttondown	0	7	N	43	(8*2) - 8	8	8	TRUE	95	2	1	1	5538.7324916284142091172		37	8	37
5.0.4.0	win	081216	09:53:17	1	1	TestBoth	8	solve_math	275	796	TRUE	1	7	N	43	(8*2) - 8	8	8	TRUE	95	2	1	1	5538.7324916284142091172		37	8	37
5.0.4.0	win	081216	09:53:17	1	1	TestBoth	8	show_letter	276	800	0	0	7	L	43	(8*2) - 8	8	8	TRUE	95	2	1	1	5538.7324916284142091172		37	8	37
5.0.4.0	win	081216	09:53:17	1	1	TestBoth	8	show_math	281	2365	lbuttondown	0	7	L	44	(1*7) - 4	3	0	FALSE	95	2	1	1	5538.7324916284142091172		37	8	37
5.0.4.0	win	081216	09:53:17	1	1	TestBoth	8	solve_math	282	666	FALSE	1	7	L	44	(1*7) - 4	3	0	FALSE	95	2	1	1	5538.7324916284142091172		37	8	37
5.0.4.0	win	081216	09:53:17	1	1	TestBoth	8	show_letter	283	800	0	0	7	Y	44	(1*7) - 4	3	0	FALSE	95	2	1	1	5538.7324916284142091172		37	8	37
5.0.4.0	win	081216	09:53:17	1	1	TestBoth	8	recall_letter	284	1897	Q	0	7	Y	44	(1*7) - 4	3	0	FALSE	95	2	1	1	5538.7324916284142091172	Q	37	8	37
5.0.4.0	win	081216	09:53:17	1	1	TestBoth	8	recall_letter	285	678	P	0	7	Y	44	(1*7) - 4	3	0	FALSE	95	2	1	1	5538.7324916284142091172	QP	37	8	37
5.0.4.0	win	081216	09:53:17	1	1	TestBoth	8	recall_letter	286	547	H	0	7	Y	44	(1*7) - 4	3	0	FALSE	95	2	1	1	5538.7324916284142091172	QPH	37	8	37
5.0.4.0	win	081216	09:53:17	1	1	TestBoth	8	recall_letter	287	550	T	0	7	Y	44	(1*7) - 4	3	0	FALSE	95	2	1	1	5538.7324916284142091172	QPHT	37	8	37
5.0.4.0	win	081216	09:53:17	1	1	TestBoth	8	recall_letter	288	376	L	0	7	Y	44	(1*7) - 4	3	0	FALSE	95	2	1	1	5538.7324916284142091172	QPHTL	37	8	37
5.0.4.0	win	081216	09:53:17	1	1	TestBoth	8	recall_letter	289	481	Y	0	7	Y	44	(1*7) - 4	3	0	FALSE	95	2	1	1	5538.7324916284142091172	QPHTLY	37	8	37
5.0.4.0	win	081216	09:53:17	1	1	TestBoth	8	recall_letter	290	543	exit	0	7	Y	44	(1*7) - 4	3	0	FALSE	95	2	1	1	5538.7324916284142091172	QPHTLY	37	8	37
5.0.4.0	win	081216	09:53:17	1	1	TestBoth	8	letter_feedback	291	1500	0	0	7	Y	44	(1*7) - 4	3	0	FALSE	95	2	1	1	5538.7324916284142091172	QPHTLY	38	8	37
5.0.4.0	win	081216	09:53:17	1	1	TestBoth	8	show_math	295	5291	lbuttondown	0	3	Y	45	(1*8) - 5	3	0	FALSE	95	2	1	1	5538.7324916284142091172		38	8	37
5.0.4.0	win	081216	09:53:17	1	1	TestBoth	8	solve_math	296	843	FALSE	1	3	Y	45	(1*8) - 5	3	0	FALSE	96	2	1	1	5538.7324916284142091172		38	8	37
5.0.4.0	win	081216	09:53:17	1	1	TestBoth	8	show_letter	297	800	0	0	3	Q	45	(1*8) - 5	3	0	FALSE	96	2	1	1	5538.7324916284142091172		38	8	37
5.0.4.0	win	081216	09:53:17	1	1	TestBoth	8	show_math	299	2011	lbuttondown	0	3	Q	46	(9/3) + 6	9	9	TRUE	96	2	1	1	5538.7324916284142091172		38	8	37
5.0.4.0	win	081216	09:53:17	1	1	TestBoth	8	solve_math	300	726	TRUE	1	3	Q	46	(9/3) + 6	9	9	TRUE	96	2	1	1	5538.7324916284142091172		38	8	37
5.0.4.0	win	081216	09:53:17	1	1	TestBoth	8	show_letter	301	800	0	0	3	L	46	(9/3) + 6	9	9	TRUE	96	2	1	1	5538.7324916284142091172		38	8	37
5.0.4.0	win	081216	09:53:17	1	1	TestBoth	8	show_math	303	2995	lbuttondown	0	3	L	47	(9/9) + 4	5	5	TRUE	96	2	1	1	5538.7324916284142091172		38	8	37
5.0.4.0	win	081216	09:53:17	1	1	TestBoth	8	solve_math	304	655	TRUE	1	3	L	47	(9/9) + 4	5	5	TRUE	96	2	1	1	5538.7324916284142091172		38	8	37
5.0.4.0	win	081216	09:53:17	1	1	TestBoth	8	show_letter	305	800	0	0	3	R	47	(9/9) + 4	5	5	TRUE	96	2	1	1	5538.7324916284142091172		38	8	37
5.0.4.0	win	081216	09:53:17	1	1	TestBoth	8	recall_letter	306	1119	Q	0	3	R	47	(9/9) + 4	5	5	TRUE	96	2	1	1	5538.7324916284142091172	Q	38	8	37
5.0.4.0	win	081216	09:53:17	1	1	TestBoth	8	recall_letter	307	146	L	0	3	R	47	(9/9) + 4	5	5	TRUE	96	2	1	1	5538.7324916284142091172	QL	38	8	37
5.0.4.0	win	081216	09:53:17	1	1	TestBoth	8	recall_letter	308	533	R	0	3	R	47	(9/9) + 4	5	5	TRUE	96	2	1	1	5538.7324916284142091172	QLR	38	8	37
5.0.4.0	win	081216	09:53:17	1	1	TestBoth	8	recall_letter	309	784	exit	0	3	R	47	(9/9) + 4	5	5	TRUE	96	2	1	1	5538.7324916284142091172	QLR	38	8	37
5.0.4.0	win	081216	09:53:17	1	1	TestBoth	8	letter_feedback	310	1500	0	0	3	R	47	(9/9) + 4	5	5	TRUE	96	2	1	1	5538.7324916284142091172	QLR	41	9	40
5.0.4.0	win	081216	09:53:17	1	1	TestBoth	8	show_math	314	1730	lbuttondown	0	6	R	48	(1*6) + 1	7	15	FALSE	96	2	1	1	5538.7324916284142091172		41	9	40
5.0.4.0	win	081216	09:53:17	1	1	TestBoth	8	solve_math	315	745	FALSE	1	6	R	48	(1*6) + 1	7	15	FALSE	96	2	1	1	5538.7324916284142091172		41	9	40
5.0.4.0	win	081216	09:53:17	1	1	TestBoth	8	show_letter	316	800	0	0	6	Q	48	(1*6) + 1	7	15	FALSE	96	2	1	1	5538.7324916284142091172		41	9	40
5.0.4.0	win	081216	09:53:17	1	1	TestBoth	8	show_math	319	1348	lbuttondown	0	6	Q	49	(1*5) + 6	11	17	FALSE	96	2	1	1	5538.7324916284142091172		41	9	40
5.0.4.0	win	081216	09:53:17	1	1	TestBoth	8	solve_math	320	762	FALSE	1	6	Q	49	(1*5) + 6	11	17	FALSE	96	2	1	1	5538.7324916284142091172		41	9	40
5.0.4.0	win	081216	09:53:17	1	1	TestBoth	8	show_letter	321	800	0	0	6	F	49	(1*5) + 6	11	17	FALSE	96	2	1	1	5538.7324916284142091172		41	9	40
5.0.4.0	win	081216	09:53:17	1	1	TestBoth	8	show_math	323	1405	lbuttondown	0	6	F	50	(5/5) + 3	4	4	TRUE	96	2	1	1	5538.7324916284142091172		41	9	40
5.0.4.0	win	081216	09:53:17	1	1	TestBoth	8	solve_math	324	745	TRUE	1	6	F	50	(5/5) + 3	4	4	TRUE	96	2	1	1	5538.7324916284142091172		41	9	40
5.0.4.0	win	081216	09:53:17	1	1	TestBoth	8	show_letter	325	800	0	0	6	Y	50	(5/5) + 3	4	4	TRUE	96	2	1	1	5538.7324916284142091172		41	9	40
5.0.4.0	win	081216	09:53:17	1	1	TestBoth	8	show_math	328	1532	lbuttondown	0	6	Y	51	(1*9) + 9	18	19	FALSE	96	2	1	1	5538.7324916284142091172		41	9	40
5.0.4.0	win	081216	09:53:17	1	1	TestBoth	8	solve_math	329	835	FALSE	1	6	Y	51	(1*9) + 9	18	19	FALSE	96	2	1	1	5538.7324916284142091172		41	9	40
5.0.4.0	win	081216	09:53:17	1	1	TestBoth	8	show_letter	330	800	0	0	6	H	51	(1*9) + 9	18	19	FALSE	96	2	1	1	5538.7324916284142091172		41	9	40
5.0.4.0	win	081216	09:53:17	1	1	TestBoth	8	show_math	334	2393	lbuttondown	0	6	H	52	(1/1) - 0	1	1	TRUE	96	2	1	1	5538.7324916284142091172		41	9	40
5.0.4.0	win	081216	09:53:17	1	1	TestBoth	8	solve_math	335	693	TRUE	1	6	H	52	(1/1) - 0	1	1	TRUE	96	2	1	1	5538.7324916284142091172		41	9	40
5.0.4.0	win	081216	09:53:17	1	1	TestBoth	8	show_letter	336	800	0	0	6	T	52	(1/1) - 0	1	1	TRUE	96	2	1	1	5538.7324916284142091172		41	9	40
5.0.4.0	win	081216	09:53:17	1	1	TestBoth	8	show_math	339	1307	lbuttondown	0	6	T	53	(1*3) + 7	10	13	FALSE	96	2	1	1	5538.7324916284142091172		41	9	40
5.0.4.0	win	081216	09:53:17	1	1	TestBoth	8	solve_math	340	706	FALSE	1	6	T	53	(1*3) + 7	10	13	FALSE	96	2	1	1	5538.7324916284142091172		41	9	40
5.0.4.0	win	081216	09:53:17	1	1	TestBoth	8	show_letter	341	800	0	0	6	J	53	(1*3) + 7	10	13	FALSE	96	2	1	1	5538.7324916284142091172		41	9	40
5.0.4.0	win	081216	09:53:17	1	1	TestBoth	8	recall_letter	342	2264	Q	0	6	J	53	(1*3) + 7	10	13	FALSE	96	2	1	1	5538.7324916284142091172	Q	41	9	40
5.0.4.0	win	081216	09:53:17	1	1	TestBoth	8	recall_letter	343	1286	F	0	6	J	53	(1*3) + 7	10	13	FALSE	96	2	1	1	5538.7324916284142091172	QF	41	9	40
5.0.4.0	win	081216	09:53:17	1	1	TestBoth	8	recall_letter	344	827	Y	0	6	J	53	(1*3) + 7	10	13	FALSE	96	2	1	1	5538.7324916284142091172	QFY	41	9	40
5.0.4.0	win	081216	09:53:17	1	1	TestBoth	8	recall_letter	345	562	H	0	6	J	53	(1*3) + 7	10	13	FALSE	96	2	1	1	5538.7324916284142091172	QFYH	41	9	40
5.0.4.0	win	081216	09:53:17	1	1	TestBoth	8	recall_letter	346	836	T	0	6	J	53	(1*3) + 7	10	13	FALSE	96	2	1	1	5538.7324916284142091172	QFYHT	41	9	40
5.0.4.0	win	081216	09:53:17	1	1	TestBoth	8	recall_letter	347	2682	exit	0	6	J	53	(1*3) + 7	10	13	FALSE	96	2	1	1	5538.7324916284142091172	QFYHT	41	9	40
5.0.4.0	win	081216	09:53:17	1	1	TestBoth	8	letter_feedback	348	1500	0	0	6	J	53	(1*3) + 7	10	13	FALSE	96	2	1	1	5538.7324916284142091172	QFYHT	46	9	40
5.0.4.0	win	081216	09:53:17	1	1	TestBoth	8	show_math	351	1818	lbuttondown	0	5	J	54	(2/2) + 8	9	9	TRUE	96	2	1	1	5538.7324916284142091172		46	9	40
5.0.4.0	win	081216	09:53:17	1	1	TestBoth	8	solve_math	352	789	TRUE	1	5	J	54	(2/2) + 8	9	9	TRUE	96	2	1	1	5538.7324916284142091172		46	9	40
5.0.4.0	win	081216	09:53:17	1	1	TestBoth	8	show_letter	353	800	0	0	5	T	54	(2/2) + 8	9	9	TRUE	96	2	1	1	5538.7324916284142091172		46	9	40
5.0.4.0	win	081216	09:53:17	1	1	TestBoth	8	show_math	360	3452	lbuttondown	0	5	T	55	(8/1) - 7	1	0	FALSE	96	2	1	1	5538.7324916284142091172		46	9	40
5.0.4.0	win	081216	09:53:17	1	1	TestBoth	8	solve_math	361	885	FALSE	1	5	T	55	(8/1) - 7	1	0	FALSE	96	2	1	1	5538.7324916284142091172		46	9	40
5.0.4.0	win	081216	09:53:17	1	1	TestBoth	8	show_letter	362	800	0	0	5	P	55	(8/1) - 7	1	0	FALSE	96	2	1	1	5538.7324916284142091172		46	9	40
5.0.4.0	win	081216	09:53:17	1	1	TestBoth	8	show_math	364	2363	lbuttondown	0	5	P	56	(1*4) + 2	6	6	TRUE	96	2	1	1	5538.7324916284142091172		46	9	40
5.0.4.0	win	081216	09:53:17	1	1	TestBoth	8	solve_math	365	696	TRUE	1	5	P	56	(1*4) + 2	6	6	TRUE	96	2	1	1	5538.7324916284142091172		46	9	40
5.0.4.0	win	081216	09:53:17	1	1	TestBoth	8	show_letter	366	800	0	0	5	J	56	(1*4) + 2	6	6	TRUE	96	2	1	1	5538.7324916284142091172		46	9	40
5.0.4.0	win	081216	09:53:17	1	1	TestBoth	8	show_math	375	1858	lbuttondown	0	5	J	57	(3/3) + 1	2	0	FALSE	96	2	1	1	5538.7324916284142091172		46	9	40
5.0.4.0	win	081216	09:53:17	1	1	TestBoth	8	solve_math	376	683	FALSE	1	5	J	57	(3/3) + 1	2	0	FALSE	96	2	1	1	5538.7324916284142091172		46	9	40
5.0.4.0	win	081216	09:53:17	1	1	TestBoth	8	show_letter	377	800	0	0	5	N	57	(3/3) + 1	2	0	FALSE	96	2	1	1	5538.7324916284142091172		46	9	40
5.0.4.0	win	081216	09:53:17	1	1	TestBoth	8	show_math	382	5399	lbuttondown	0	5	N	58	(7/1) - 5	2	0	FALSE	96	2	1	1	5538.7324916284142091172		46	9	40
5.0.4.0	win	081216	09:53:17	1	1	TestBoth	8	solve_math	383	827	FALSE	1	5	N	58	(7/1) - 5	2	0	FALSE	97	2	1	1	5538.7324916284142091172		46	9	40
5.0.4.0	win	081216	09:53:17	1	1	TestBoth	8	show_letter	384	800	0	0	5	S	58	(7/1) - 5	2	0	FALSE	97	2	1	1	5538.7324916284142091172		46	9	40
5.0.4.0	win	081216	09:53:17	1	1	TestBoth	8	recall_letter	385	1708	T	0	5	S	58	(7/1) - 5	2	0	FALSE	97	2	1	1	5538.7324916284142091172	T	46	9	40
5.0.4.0	win	081216	09:53:17	1	1	TestBoth	8	recall_letter	386	384	P	0	5	S	58	(7/1) - 5	2	0	FALSE	97	2	1	1	5538.7324916284142091172	TP	46	9	40
5.0.4.0	win	081216	09:53:17	1	1	TestBoth	8	recall_letter	387	553	J	0	5	S	58	(7/1) - 5	2	0	FALSE	97	2	1	1	5538.7324916284142091172	TPJ	46	9	40
5.0.4.0	win	081216	09:53:17	1	1	TestBoth	8	recall_letter	388	251	N	0	5	S	58	(7/1) - 5	2	0	FALSE	97	2	1	1	5538.7324916284142091172	TPJN	46	9	40
5.0.4.0	win	081216	09:53:17	1	1	TestBoth	8	recall_letter	389	393	S	0	5	S	58	(7/1) - 5	2	0	FALSE	97	2	1	1	5538.7324916284142091172	TPJNS	46	9	40
5.0.4.0	win	081216	09:53:17	1	1	TestBoth	8	recall_letter	390	761	exit	0	5	S	58	(7/1) - 5	2	0	FALSE	97	2	1	1	5538.7324916284142091172	TPJNS	46	9	40
5.0.4.0	win	081216	09:53:17	1	1	TestBoth	8	letter_feedback	391	1500	0	0	5	S	58	(7/1) - 5	2	0	FALSE	97	2	1	1	5538.7324916284142091172	TPJNS	51	10	45
5.0.4.0	win	081216	09:53:17	1	1	TestBoth	8	show_math	395	1781	lbuttondown	0	4	S	59	(9/1) + 9	18	20	FALSE	97	2	1	1	5538.7324916284142091172		51	10	45
5.0.4.0	win	081216	09:53:17	1	1	TestBoth	8	solve_math	396	762	FALSE	1	4	S	59	(9/1) + 9	18	20	FALSE	97	2	1	1	5538.7324916284142091172		51	10	45
5.0.4.0	win	081216	09:53:17	1	1	TestBoth	8	show_letter	397	800	0	0	4	H	59	(9/1) + 9	18	20	FALSE	97	2	1	1	5538.7324916284142091172		51	10	45
5.0.4.0	win	081216	09:53:17	1	1	TestBoth	8	show_math	400	2349	lbuttondown	0	4	H	60	(7*2) - 1	13	18	FALSE	97	2	1	1	5538.7324916284142091172		51	10	45
5.0.4.0	win	081216	09:53:17	1	1	TestBoth	8	solve_math	401	922	FALSE	1	4	H	60	(7*2) - 1	13	18	FALSE	97	2	1	1	5538.7324916284142091172		51	10	45
5.0.4.0	win	081216	09:53:17	1	1	TestBoth	8	show_letter	402	800	0	0	4	F	60	(7*2) - 1	13	18	FALSE	97	2	1	1	5538.7324916284142091172		51	10	45
5.0.4.0	win	081216	09:53:17	1	1	TestBoth	8	show_math	404	1559	lbuttondown	0	4	F	61	(4*3) - 5	7	7	TRUE	97	2	1	1	5538.7324916284142091172		51	10	45
5.0.4.0	win	081216	09:53:17	1	1	TestBoth	8	solve_math	405	796	TRUE	1	4	F	61	(4*3) - 5	7	7	TRUE	97	2	1	1	5538.7324916284142091172		51	10	45
5.0.4.0	win	081216	09:53:17	1	1	TestBoth	8	show_letter	406	800	0	0	4	S	61	(4*3) - 5	7	7	TRUE	97	2	1	1	5538.7324916284142091172		51	10	45
5.0.4.0	win	081216	09:53:17	1	1	TestBoth	8	show_math	408	1990	lbuttondown	0	4	S	62	(8/8) + 1	2	2	TRUE	97	2	1	1	5538.7324916284142091172		51	10	45
5.0.4.0	win	081216	09:53:17	1	1	TestBoth	8	solve_math	409	794	TRUE	1	4	S	62	(8/8) + 1	2	2	TRUE	97	2	1	1	5538.7324916284142091172		51	10	45
5.0.4.0	win	081216	09:53:17	1	1	TestBoth	8	show_letter	410	800	0	0	4	K	62	(8/8) + 1	2	2	TRUE	97	2	1	1	5538.7324916284142091172		51	10	45
5.0.4.0	win	081216	09:53:17	1	1	TestBoth	8	recall_letter	411	1092	H	0	4	K	62	(8/8) + 1	2	2	TRUE	97	2	1	1	5538.7324916284142091172	H	51	10	45
5.0.4.0	win	081216	09:53:17	1	1	TestBoth	8	recall_letter	412	721	F	0	4	K	62	(8/8) + 1	2	2	TRUE	97	2	1	1	5538.7324916284142091172	HF	51	10	45
5.0.4.0	win	081216	09:53:17	1	1	TestBoth	8	recall_letter	413	580	S	0	4	K	62	(8/8) + 1	2	2	TRUE	97	2	1	1	5538.7324916284142091172	HFS	51	10	45
5.0.4.0	win	081216	09:53:17	1	1	TestBoth	8	recall_letter	414	246	K	0	4	K	62	(8/8) + 1	2	2	TRUE	97	2	1	1	5538.7324916284142091172	HFSK	51	10	45
5.0.4.0	win	081216	09:53:17	1	1	TestBoth	8	recall_letter	415	652	exit	0	4	K	62	(8/8) + 1	2	2	TRUE	97	2	1	1	5538.7324916284142091172	HFSK	51	10	45
5.0.4.0	win	081216	09:53:17	1	1	TestBoth	8	letter_feedback	416	1500	0	0	4	K	62	(8/8) + 1	2	2	TRUE	97	2	1	1	5538.7324916284142091172	HFSK	55	11	49
5.0.4.0	win	081216	09:53:17	1	1	TestBoth	8	show_math	419	1461	lbuttondown	0	7	K	63	(3*4) + 4	16	16	TRUE	97	2	1	1	5538.7324916284142091172		55	11	49
5.0.4.0	win	081216	09:53:17	1	1	TestBoth	8	solve_math	420	766	TRUE	1	7	K	63	(3*4) + 4	16	16	TRUE	97	2	1	1	5538.7324916284142091172		55	11	49
5.0.4.0	win	081216	09:53:17	1	1	TestBoth	8	show_letter	421	800	0	0	7	N	63	(3*4) + 4	16	16	TRUE	97	2	1	1	5538.7324916284142091172		55	11	49
5.0.4.0	win	081216	09:53:17	1	1	TestBoth	8	show_math	423	1833	lbuttondown	0	7	N	64	(4/2) - 2	0	0	TRUE	97	2	1	1	5538.7324916284142091172		55	11	49
5.0.4.0	win	081216	09:53:17	1	1	TestBoth	8	solve_math	424	891	TRUE	1	7	N	64	(4/2) - 2	0	0	TRUE	97	2	1	1	5538.7324916284142091172		55	11	49
5.0.4.0	win	081216	09:53:17	1	1	TestBoth	8	show_letter	425	800	0	0	7	P	64	(4/2) - 2	0	0	TRUE	97	2	1	1	5538.7324916284142091172		55	11	49
5.0.4.0	win	081216	09:53:17	1	1	TestBoth	8	show_math	428	2520	lbuttondown	0	7	P	65	(6/2) - 3	0	9	FALSE	97	2	1	1	5538.7324916284142091172		55	11	49
5.0.4.0	win	081216	09:53:17	1	1	TestBoth	8	solve_math	429	831	FALSE	1	7	P	65	(6/2) - 3	0	9	FALSE	97	2	1	1	5538.7324916284142091172		55	11	49
5.0.4.0	win	081216	09:53:17	1	1	TestBoth	8	show_letter	430	800	0	0	7	K	65	(6/2) - 3	0	9	FALSE	97	2	1	1	5538.7324916284142091172		55	11	49
5.0.4.0	win	081216	09:53:17	1	1	TestBoth	8	show_math	432	2375	lbuttondown	0	7	K	66	(2*2) - 4	0	0	TRUE	97	2	1	1	5538.7324916284142091172		55	11	49
5.0.4.0	win	081216	09:53:17	1	1	TestBoth	8	solve_math	433	636	TRUE	1	7	K	66	(2*2) - 4	0	0	TRUE	97	2	1	1	5538.7324916284142091172		55	11	49
5.0.4.0	win	081216	09:53:17	1	1	TestBoth	8	show_letter	434	800	0	0	7	L	66	(2*2) - 4	0	0	TRUE	97	2	1	1	5538.7324916284142091172		55	11	49
5.0.4.0	win	081216	09:53:17	1	1	TestBoth	8	show_math	436	1276	lbuttondown	0	7	L	67	(5*2) + 5	15	15	TRUE	97	2	1	1	5538.7324916284142091172		55	11	49
5.0.4.0	win	081216	09:53:17	1	1	TestBoth	8	solve_math	437	693	TRUE	1	7	L	67	(5*2) + 5	15	15	TRUE	97	2	1	1	5538.7324916284142091172		55	11	49
5.0.4.0	win	081216	09:53:17	1	1	TestBoth	8	show_letter	438	800	0	0	7	S	67	(5*2) + 5	15	15	TRUE	97	2	1	1	5538.7324916284142091172		55	11	49
5.0.4.0	win	081216	09:53:17	1	1	TestBoth	8	show_math	442	2473	lbuttondown	0	7	S	68	(4/1) - 2	2	2	TRUE	97	2	1	1	5538.7324916284142091172		55	11	49
5.0.4.0	win	081216	09:53:17	1	1	TestBoth	8	solve_math	443	754	TRUE	1	7	S	68	(4/1) - 2	2	2	TRUE	97	2	1	1	5538.7324916284142091172		55	11	49
5.0.4.0	win	081216	09:53:17	1	1	TestBoth	8	show_letter	444	800	0	0	7	Y	68	(4/1) - 2	2	2	TRUE	97	2	1	1	5538.7324916284142091172		55	11	49
5.0.4.0	win	081216	09:53:17	1	1	TestBoth	8	show_math	449	2659	lbuttondown	0	7	Y	69	(2*6) - 9	3	1	FALSE	97	2	1	1	5538.7324916284142091172		55	11	49
5.0.4.0	win	081216	09:53:17	1	1	TestBoth	8	solve_math	450	653	FALSE	1	7	Y	69	(2*6) - 9	3	1	FALSE	97	2	1	1	5538.7324916284142091172		55	11	49
5.0.4.0	win	081216	09:53:17	1	1	TestBoth	8	show_letter	451	800	0	0	7	J	69	(2*6) - 9	3	1	FALSE	97	2	1	1	5538.7324916284142091172		55	11	49
5.0.4.0	win	081216	09:53:17	1	1	TestBoth	8	recall_letter	452	1293	N	0	7	J	69	(2*6) - 9	3	1	FALSE	97	2	1	1	5538.7324916284142091172	N	55	11	49
5.0.4.0	win	081216	09:53:17	1	1	TestBoth	8	recall_letter	453	457	P	0	7	J	69	(2*6) - 9	3	1	FALSE	97	2	1	1	5538.7324916284142091172	NP	55	11	49
5.0.4.0	win	081216	09:53:17	1	1	TestBoth	8	recall_letter	454	471	K	0	7	J	69	(2*6) - 9	3	1	FALSE	97	2	1	1	5538.7324916284142091172	NPK	55	11	49
5.0.4.0	win	081216	09:53:17	1	1	TestBoth	8	recall_letter	455	469	L	0	7	J	69	(2*6) - 9	3	1	FALSE	97	2	1	1	5538.7324916284142091172	NPKL	55	11	49
5.0.4.0	win	081216	09:53:17	1	1	TestBoth	8	recall_letter	456	602	S	0	7	J	69	(2*6) - 9	3	1	FALSE	97	2	1	1	5538.7324916284142091172	NPKLS	55	11	49
5.0.4.0	win	081216	09:53:17	1	1	TestBoth	8	recall_letter	457	378	Y	0	7	J	69	(2*6) - 9	3	1	FALSE	97	2	1	1	5538.7324916284142091172	NPKLSY	55	11	49
5.0.4.0	win	081216	09:53:17	1	1	TestBoth	8	recall_letter	458	419	J	0	7	J	69	(2*6) - 9	3	1	FALSE	97	2	1	1	5538.7324916284142091172	NPKLSYJ	55	11	49
5.0.4.0	win	081216	09:53:17	1	1	TestBoth	8	recall_letter	459	1547	exit	0	7	J	69	(2*6) - 9	3	1	FALSE	97	2	1	1	5538.7324916284142091172	NPKLSYJ	55	11	49
5.0.4.0	win	081216	09:53:17	1	1	TestBoth	8	letter_feedback	460	1500	0	0	7	J	69	(2*6) - 9	3	1	FALSE	97	2	1	1	5538.7324916284142091172	NPKLSYJ	62	12	56
5.0.4.0	win	081216	09:53:17	1	1	TestBoth	8	show_math	464	2199	lbuttondown	0	6	J	70	(8/2) + 7	11	16	FALSE	97	2	1	1	5538.7324916284142091172		62	12	56
5.0.4.0	win	081216	09:53:17	1	1	TestBoth	8	solve_math	465	714	FALSE	1	6	J	70	(8/2) + 7	11	16	FALSE	97	2	1	1	5538.7324916284142091172		62	12	56
5.0.4.0	win	081216	09:53:17	1	1	TestBoth	8	show_letter	466	800	0	0	6	J	70	(8/2) + 7	11	16	FALSE	97	2	1	1	5538.7324916284142091172		62	12	56
5.0.4.0	win	081216	09:53:17	1	1	TestBoth	8	show_math	469	1487	lbuttondown	0	6	J	71	(1*2) - 1	1	1	TRUE	97	2	1	1	5538.7324916284142091172		62	12	56
5.0.4.0	win	081216	09:53:17	1	1	TestBoth	8	solve_math	470	799	TRUE	1	6	J	71	(1*2) - 1	1	1	TRUE	97	2	1	1	5538.7324916284142091172		62	12	56
5.0.4.0	win	081216	09:53:17	1	1	TestBoth	8	show_letter	471	800	0	0	6	P	71	(1*2) - 1	1	1	TRUE	97	2	1	1	5538.7324916284142091172		62	12	56
5.0.4.0	win	081216	09:53:17	1	1	TestBoth	8	show_math	474	2032	lbuttondown	0	6	P	72	(2*3) - 5	1	1	TRUE	97	2	1	1	5538.7324916284142091172		62	12	56
5.0.4.0	win	081216	09:53:17	1	1	TestBoth	8	solve_math	475	754	TRUE	1	6	P	72	(2*3) - 5	1	1	TRUE	97	2	1	1	5538.7324916284142091172		62	12	56
5.0.4.0	win	081216	09:53:17	1	1	TestBoth	8	show_letter	476	800	0	0	6	Y	72	(2*3) - 5	1	1	TRUE	97	2	1	1	5538.7324916284142091172		62	12	56
5.0.4.0	win	081216	09:53:17	1	1	TestBoth	8	show_math	479	4413	lbuttondown	0	6	Y	73	(3*2) + 2	8	12	FALSE	97	2	1	1	5538.7324916284142091172		62	12	56
5.0.4.0	win	081216	09:53:17	1	1	TestBoth	8	solve_math	480	800	FALSE	1	6	Y	73	(3*2) + 2	8	12	FALSE	97	2	1	1	5538.7324916284142091172		62	12	56
5.0.4.0	win	081216	09:53:17	1	1	TestBoth	8	show_letter	481	800	0	0	6	H	73	(3*2) + 2	8	12	FALSE	97	2	1	1	5538.7324916284142091172		62	12	56
5.0.4.0	win	081216	09:53:17	1	1	TestBoth	8	show_math	484	1449	lbuttondown	0	6	H	74	(2*4) - 1	7	0	FALSE	97	2	1	1	5538.7324916284142091172		62	12	56
5.0.4.0	win	081216	09:53:17	1	1	TestBoth	8	solve_math	485	762	FALSE	1	6	H	74	(2*4) - 1	7	0	FALSE	97	2	1	1	5538.7324916284142091172		62	12	56
5.0.4.0	win	081216	09:53:17	1	1	TestBoth	8	show_letter	486	800	0	0	6	F	74	(2*4) - 1	7	0	FALSE	97	2	1	1	5538.7324916284142091172		62	12	56
5.0.4.0	win	081216	09:53:17	1	1	TestBoth	8	show_math	489	3717	lbuttondown	0	6	F	75	(2*7) - 6	8	6	FALSE	97	2	1	1	5538.7324916284142091172		62	12	56
5.0.4.0	win	081216	09:53:17	1	1	TestBoth	8	solve_math	490	843	FALSE	1	6	F	75	(2*7) - 6	8	6	FALSE	97	2	1	1	5538.7324916284142091172		62	12	56
5.0.4.0	win	081216	09:53:17	1	1	TestBoth	8	show_letter	491	800	0	0	6	R	75	(2*7) - 6	8	6	FALSE	97	2	1	1	5538.7324916284142091172		62	12	56
5.0.4.0	win	081216	09:53:17	1	1	TestBoth	8	recall_letter	492	2780	J	0	6	R	75	(2*7) - 6	8	6	FALSE	97	2	1	1	5538.7324916284142091172	J	62	12	56
5.0.4.0	win	081216	09:53:17	1	1	TestBoth	8	recall_letter	493	1141	P	0	6	R	75	(2*7) - 6	8	6	FALSE	97	2	1	1	5538.7324916284142091172	JP	62	12	56
5.0.4.0	win	081216	09:53:17	1	1	TestBoth	8	recall_letter	494	1224	H	0	6	R	75	(2*7) - 6	8	6	FALSE	97	2	1	1	5538.7324916284142091172	JPH	62	12	56
5.0.4.0	win	081216	09:53:17	1	1	TestBoth	8	recall_letter	495	527	Y	0	6	R	75	(2*7) - 6	8	6	FALSE	97	2	1	1	5538.7324916284142091172	JPHY	62	12	56
5.0.4.0	win	081216	09:53:17	1	1	TestBoth	8	recall_letter	496	531	F	0	6	R	75	(2*7) - 6	8	6	FALSE	97	2	1	1	5538.7324916284142091172	JPHYF	62	12	56
5.0.4.0	win	081216	09:53:17	1	1	TestBoth	8	recall_letter	497	710	R	0	6	R	75	(2*7) - 6	8	6	FALSE	97	2	1	1	5538.7324916284142091172	JPHYFR	62	12	56
5.0.4.0	win	081216	09:53:17	1	1	TestBoth	8	recall_letter	498	954	exit	0	6	R	75	(2*7) - 6	8	6	FALSE	97	2	1	1	5538.7324916284142091172	JPHYFR	62	12	56
5.0.4.0	win	081216	09:53:17	1	1	TestBoth	8	letter_feedback	499	1500	0	0	6	R	75	(2*7) - 6	8	6	FALSE	97	2	1	1	5538.7324916284142091172	JPHYFR	66	12	56
