build	computer.platform	date	time	subject	group	blockcode	blocknum	trialcode	trialnum	latency	response	correct	values.currentsetsize	text.letters.currentitem	values.mathproblemcount	text.MathProblem.currentitem	values.mathtrueanswer	values.mathanswer	values.mathcorrect	values.mathaccuracy	values.mathtotalerrors	values.mathaccerrors	values.mathspeederrors	values.mathtimeout	values.recalledletters	values.totalcorrectletters	values.totalrecalledsets	values.ospan
5.0.4.0	win	080416	15:14:16	1	1	PracLetter	2	show_letter	2	800	0	0	2	F	0	  0	0	0		0	0	0	0	5000		0	0	0
5.0.4.0	win	080416	15:14:16	1	1	PracLetter	2	show_letter	3	800	0	0	2	P	0	  0	0	0		0	0	0	0	5000		0	0	0
5.0.4.0	win	080416	15:14:16	1	1	PracLetter	2	recall_letter	4	1453	F	0	2	P	0	  0	0	0		0	0	0	0	5000	F	0	0	0
5.0.4.0	win	080416	15:14:16	1	1	PracLetter	2	recall_letter	5	380	P	0	2	P	0	  0	0	0		0	0	0	0	5000	FP	0	0	0
5.0.4.0	win	080416	15:14:16	1	1	PracLetter	2	recall_letter	6	493	exit	0	2	P	0	  0	0	0		0	0	0	0	5000	FP	0	0	0
5.0.4.0	win	080416	15:14:16	1	1	PracLetter	2	letter_feedback	7	1500	0	0	2	P	0	  0	0	0		0	0	0	0	5000	FP	2	1	2
5.0.4.0	win	080416	15:14:16	1	1	PracLetter	2	show_letter	9	800	0	0	2	Q	0	  0	0	0		0	0	0	0	5000		2	1	2
5.0.4.0	win	080416	15:14:16	1	1	PracLetter	2	show_letter	10	800	0	0	2	J	0	  0	0	0		0	0	0	0	5000		2	1	2
5.0.4.0	win	080416	15:14:16	1	1	PracLetter	2	recall_letter	11	1724	Q	0	2	J	0	  0	0	0		0	0	0	0	5000	Q	2	1	2
5.0.4.0	win	080416	15:14:16	1	1	PracLetter	2	recall_letter	12	616	J	0	2	J	0	  0	0	0		0	0	0	0	5000	QJ	2	1	2
5.0.4.0	win	080416	15:14:16	1	1	PracLetter	2	recall_letter	13	360	exit	0	2	J	0	  0	0	0		0	0	0	0	5000	QJ	2	1	2
5.0.4.0	win	080416	15:14:16	1	1	PracLetter	2	letter_feedback	14	1500	0	0	2	J	0	  0	0	0		0	0	0	0	5000	QJ	4	2	4
5.0.4.0	win	080416	15:14:16	1	1	PracLetter	2	show_letter	16	800	0	0	3	H	0	  0	0	0		0	0	0	0	5000		4	2	4
5.0.4.0	win	080416	15:14:16	1	1	PracLetter	2	show_letter	17	800	0	0	3	K	0	  0	0	0		0	0	0	0	5000		4	2	4
5.0.4.0	win	080416	15:14:16	1	1	PracLetter	2	show_letter	18	800	0	0	3	T	0	  0	0	0		0	0	0	0	5000		4	2	4
5.0.4.0	win	080416	15:14:16	1	1	PracLetter	2	recall_letter	19	18508	_	0	3	T	0	  0	0	0		0	0	0	0	5000	_	4	2	4
5.0.4.0	win	080416	15:14:16	1	1	PracLetter	2	recall_letter	20	88	_	0	3	T	0	  0	0	0		0	0	0	0	5000	__	4	2	4
5.0.4.0	win	080416	15:14:16	1	1	PracLetter	2	recall_letter	21	541	exit	0	3	T	0	  0	0	0		0	0	0	0	5000	__	4	2	4
5.0.4.0	win	080416	15:14:16	1	1	PracLetter	2	letter_feedback	22	1500	0	0	3	T	0	  0	0	0		0	0	0	0	5000	__	4	2	4
5.0.4.0	win	080416	15:14:16	1	1	PracLetter	2	show_letter	24	800	0	0	3	S	0	  0	0	0		0	0	0	0	5000		4	2	4
5.0.4.0	win	080416	15:14:16	1	1	PracLetter	2	show_letter	25	800	0	0	3	N	0	  0	0	0		0	0	0	0	5000		4	2	4
5.0.4.0	win	080416	15:14:16	1	1	PracLetter	2	show_letter	26	800	0	0	3	R	0	  0	0	0		0	0	0	0	5000		4	2	4
5.0.4.0	win	080416	15:14:16	1	1	PracLetter	2	recall_letter	27	1250	S	0	3	R	0	  0	0	0		0	0	0	0	5000	S	4	2	4
5.0.4.0	win	080416	15:14:16	1	1	PracLetter	2	recall_letter	28	593	N	0	3	R	0	  0	0	0		0	0	0	0	5000	SN	4	2	4
5.0.4.0	win	080416	15:14:16	1	1	PracLetter	2	recall_letter	29	186	R	0	3	R	0	  0	0	0		0	0	0	0	5000	SNR	4	2	4
5.0.4.0	win	080416	15:14:16	1	1	PracLetter	2	recall_letter	30	171	R	0	3	R	0	  0	0	0		0	0	0	0	5000	SNRR	4	2	4
5.0.4.0	win	080416	15:14:16	1	1	PracLetter	2	recall_letter	31	909	exit	0	3	R	0	  0	0	0		0	0	0	0	5000	SNRR	4	2	4
5.0.4.0	win	080416	15:14:16	1	1	PracLetter	2	letter_feedback	32	1500	0	0	3	R	0	  0	0	0		0	0	0	0	5000	SNRR	7	3	7
5.0.4.0	win	080416	15:14:16	1	1	PracMath	4	prac_show_math	1	6950	lbuttondown	0	3	R	0	  0	0	0		0	0	0	0	5000	SNRR	7	3	7
5.0.4.0	win	080416	15:14:16	1	1	PracMath	4	prac_solve_math	2	955	TRUE	1	3	R	0	  0	0	0		0	0	0	0	5000	SNRR	7	3	7
5.0.4.0	win	080416	15:14:16	1	1	PracMath	4	prac_show_math	3	2272	lbuttondown	0	3	R	0	  0	0	0		0	0	0	0	5000	SNRR	7	3	7
5.0.4.0	win	080416	15:14:16	1	1	PracMath	4	prac_solve_math	4	841	FALSE	1	3	R	0	  0	0	0		0	0	0	0	5000	SNRR	7	3	7
5.0.4.0	win	080416	15:14:16	1	1	PracMath	4	prac_show_math	5	7259	lbuttondown	0	3	R	0	  0	0	0		0	0	0	0	5000	SNRR	7	3	7
5.0.4.0	win	080416	15:14:16	1	1	PracMath	4	prac_solve_math	6	1564	FALSE	1	3	R	0	  0	0	0		0	0	0	0	5000	SNRR	7	3	7
5.0.4.0	win	080416	15:14:16	1	1	PracMath	4	prac_show_math	7	3105	lbuttondown	0	3	R	0	  0	0	0		0	0	0	0	5000	SNRR	7	3	7
5.0.4.0	win	080416	15:14:16	1	1	PracMath	4	prac_solve_math	8	777	TRUE	1	3	R	0	  0	0	0		0	0	0	0	5000	SNRR	7	3	7
5.0.4.0	win	080416	15:14:16	1	1	PracMath	4	prac_show_math	9	5013	lbuttondown	0	3	R	0	  0	0	0		0	0	0	0	5000	SNRR	7	3	7
5.0.4.0	win	080416	15:14:16	1	1	PracMath	4	prac_solve_math	10	968	TRUE	1	3	R	0	  0	0	0		0	0	0	0	5000	SNRR	7	3	7
5.0.4.0	win	080416	15:14:16	1	1	PracMath	4	prac_show_math	11	4141	lbuttondown	0	3	R	0	  0	0	0		0	0	0	0	5000	SNRR	7	3	7
5.0.4.0	win	080416	15:14:16	1	1	PracMath	4	prac_solve_math	12	843	TRUE	1	3	R	0	  0	0	0		0	0	0	0	5000	SNRR	7	3	7
5.0.4.0	win	080416	15:14:16	1	1	PracMath	4	prac_show_math	13	2717	lbuttondown	0	3	R	0	  0	0	0		0	0	0	0	5000	SNRR	7	3	7
5.0.4.0	win	080416	15:14:16	1	1	PracMath	4	prac_solve_math	14	844	FALSE	0	3	R	0	  0	0	0		0	0	0	0	5000	SNRR	7	3	7
5.0.4.0	win	080416	15:14:16	1	1	PracMath	4	prac_show_math	15	4006	lbuttondown	0	3	R	0	  0	0	0		0	0	0	0	5000	SNRR	7	3	7
5.0.4.0	win	080416	15:14:16	1	1	PracMath	4	prac_solve_math	16	633	TRUE	1	3	R	0	  0	0	0		0	0	0	0	5000	SNRR	7	3	7
5.0.4.0	win	080416	15:14:16	1	1	PracMath	4	prac_show_math	17	1483	lbuttondown	0	3	R	0	  0	0	0		0	0	0	0	5000	SNRR	7	3	7
5.0.4.0	win	080416	15:14:16	1	1	PracMath	4	prac_solve_math	18	1139	FALSE	0	3	R	0	  0	0	0		0	0	0	0	5000	SNRR	7	3	7
5.0.4.0	win	080416	15:14:16	1	1	PracMath	4	prac_show_math	19	3554	lbuttondown	0	3	R	0	  0	0	0		0	0	0	0	5000	SNRR	7	3	7
5.0.4.0	win	080416	15:14:16	1	1	PracMath	4	prac_solve_math	20	1055	FALSE	1	3	R	0	  0	0	0		0	0	0	0	5000	SNRR	7	3	7
5.0.4.0	win	080416	15:14:16	1	1	PracMath	4	prac_show_math	21	1504	lbuttondown	0	3	R	0	  0	0	0		0	0	0	0	5000	SNRR	7	3	7
5.0.4.0	win	080416	15:14:16	1	1	PracMath	4	prac_solve_math	22	552	TRUE	1	3	R	0	  0	0	0		0	0	0	0	5000	SNRR	7	3	7
5.0.4.0	win	080416	15:14:16	1	1	PracMath	4	prac_show_math	23	3006	lbuttondown	0	3	R	0	  0	0	0		0	0	0	0	5000	SNRR	7	3	7
5.0.4.0	win	080416	15:14:16	1	1	PracMath	4	prac_solve_math	24	737	FALSE	1	3	R	0	  0	0	0		0	0	0	0	5000	SNRR	7	3	7
5.0.4.0	win	080416	15:14:16	1	1	PracMath	4	prac_show_math	25	1959	lbuttondown	0	3	R	0	  0	0	0		0	0	0	0	5000	SNRR	7	3	7
5.0.4.0	win	080416	15:14:16	1	1	PracMath	4	prac_solve_math	26	1540	FALSE	1	3	R	0	  0	0	0		0	0	0	0	5000	SNRR	7	3	7
5.0.4.0	win	080416	15:14:16	1	1	PracMath	4	prac_show_math	27	2379	lbuttondown	0	3	R	0	  0	0	0		0	0	0	0	5000	SNRR	7	3	7
5.0.4.0	win	080416	15:14:16	1	1	PracMath	4	prac_solve_math	28	711	FALSE	1	3	R	0	  0	0	0		0	0	0	0	5000	SNRR	7	3	7
5.0.4.0	win	080416	15:14:16	1	1	PracMath	4	prac_show_math	29	1910	lbuttondown	0	3	R	0	  0	0	0		0	0	0	0	5000	SNRR	7	3	7
5.0.4.0	win	080416	15:14:16	1	1	PracMath	4	prac_solve_math	30	709	FALSE	1	3	R	0	  0	0	0		0	0	0	0	5000	SNRR	7	3	7
5.0.4.0	win	080416	15:14:16	1	1	PracBoth	6	show_math	4	3010	lbuttondown	0	2	R	1	(1*6) - 1	5	9	FALSE	0	0	0	0	7930.1578517230327634024		0	0	0
5.0.4.0	win	080416	15:14:16	1	1	PracBoth	6	solve_math	5	989	FALSE	1	2	R	1	(1*6) - 1	5	9	FALSE	100	0	0	0	7930.1578517230327634024		0	0	0
5.0.4.0	win	080416	15:14:16	1	1	PracBoth	6	show_letter	6	800	0	0	2	J	1	(1*6) - 1	5	9	FALSE	100	0	0	0	7930.1578517230327634024		0	0	0
5.0.4.0	win	080416	15:14:16	1	1	PracBoth	6	show_math	8	1993	lbuttondown	0	2	J	2	(1*7) - 5	2	2	TRUE	100	0	0	0	7930.1578517230327634024		0	0	0
5.0.4.0	win	080416	15:14:16	1	1	PracBoth	6	solve_math	9	772	TRUE	1	2	J	2	(1*7) - 5	2	2	TRUE	100	0	0	0	7930.1578517230327634024		0	0	0
5.0.4.0	win	080416	15:14:16	1	1	PracBoth	6	show_letter	10	800	0	0	2	L	2	(1*7) - 5	2	2	TRUE	100	0	0	0	7930.1578517230327634024		0	0	0
5.0.4.0	win	080416	15:14:16	1	1	PracBoth	6	recall_letter	11	1657	J	0	2	L	2	(1*7) - 5	2	2	TRUE	100	0	0	0	7930.1578517230327634024	J	0	0	0
5.0.4.0	win	080416	15:14:16	1	1	PracBoth	6	recall_letter	12	223	L	0	2	L	2	(1*7) - 5	2	2	TRUE	100	0	0	0	7930.1578517230327634024	JL	0	0	0
5.0.4.0	win	080416	15:14:16	1	1	PracBoth	6	recall_letter	13	440	exit	0	2	L	2	(1*7) - 5	2	2	TRUE	100	0	0	0	7930.1578517230327634024	JL	0	0	0
5.0.4.0	win	080416	15:14:16	1	1	PracBoth	6	letter_feedback	14	1500	0	0	2	L	2	(1*7) - 5	2	2	TRUE	100	0	0	0	7930.1578517230327634024	JL	2	1	2
5.0.4.0	win	080416	15:14:16	1	1	PracBoth	6	show_math	18	7930	0	0	2	L	3	(1*9) + 4	13	19	FALSE	100	1	0	1	7930.1578517230327634024		2	1	2
5.0.4.0	win	080416	15:14:16	1	1	PracBoth	6	show_letter	19	800	0	0	2	N	3	(1*9) + 4	13	19	FALSE	100	1	0	1	7930.1578517230327634024		2	1	2
5.0.4.0	win	080416	15:14:16	1	1	PracBoth	6	show_math	21	2359	lbuttondown	0	2	N	4	(1*8) + 3	11	11	TRUE	100	1	0	1	7930.1578517230327634024		2	1	2
5.0.4.0	win	080416	15:14:16	1	1	PracBoth	6	solve_math	22	716	TRUE	1	2	N	4	(1*8) + 3	11	11	TRUE	75	1	0	1	7930.1578517230327634024		2	1	2
5.0.4.0	win	080416	15:14:16	1	1	PracBoth	6	show_letter	23	800	0	0	2	Q	4	(1*8) + 3	11	11	TRUE	75	1	0	1	7930.1578517230327634024		2	1	2
5.0.4.0	win	080416	15:14:16	1	1	PracBoth	6	recall_letter	24	898	J	0	2	Q	4	(1*8) + 3	11	11	TRUE	75	1	0	1	7930.1578517230327634024	J	2	1	2
5.0.4.0	win	080416	15:14:16	1	1	PracBoth	6	recall_letter	25	383	Q	0	2	Q	4	(1*8) + 3	11	11	TRUE	75	1	0	1	7930.1578517230327634024	JQ	2	1	2
5.0.4.0	win	080416	15:14:16	1	1	PracBoth	6	recall_letter	26	353	exit	0	2	Q	4	(1*8) + 3	11	11	TRUE	75	1	0	1	7930.1578517230327634024	JQ	2	1	2
5.0.4.0	win	080416	15:14:16	1	1	PracBoth	6	letter_feedback	27	1500	0	0	2	Q	4	(1*8) + 3	11	11	TRUE	75	1	0	1	7930.1578517230327634024	JQ	3	1	2
5.0.4.0	win	080416	15:14:16	1	1	PracBoth	6	show_math	30	4047	lbuttondown	0	2	Q	5	(6/1) - 4	2	2	TRUE	75	1	0	1	7930.1578517230327634024		3	1	2
5.0.4.0	win	080416	15:14:16	1	1	PracBoth	6	solve_math	31	944	TRUE	1	2	Q	5	(6/1) - 4	2	2	TRUE	80	1	0	1	7930.1578517230327634024		3	1	2
5.0.4.0	win	080416	15:14:16	1	1	PracBoth	6	show_letter	32	800	0	0	2	K	5	(6/1) - 4	2	2	TRUE	80	1	0	1	7930.1578517230327634024		3	1	2
5.0.4.0	win	080416	15:14:16	1	1	PracBoth	6	show_math	37	1708	lbuttondown	0	2	K	6	(1*3) + 2	5	0	FALSE	80	1	0	1	7930.1578517230327634024		3	1	2
5.0.4.0	win	080416	15:14:16	1	1	PracBoth	6	solve_math	38	763	FALSE	1	2	K	6	(1*3) + 2	5	0	FALSE	83	1	0	1	7930.1578517230327634024		3	1	2
5.0.4.0	win	080416	15:14:16	1	1	PracBoth	6	show_letter	39	800	0	0	2	L	6	(1*3) + 2	5	0	FALSE	83	1	0	1	7930.1578517230327634024		3	1	2
5.0.4.0	win	080416	15:14:16	1	1	PracBoth	6	recall_letter	40	1136	K	0	2	L	6	(1*3) + 2	5	0	FALSE	83	1	0	1	7930.1578517230327634024	K	3	1	2
5.0.4.0	win	080416	15:14:16	1	1	PracBoth	6	recall_letter	41	315	L	0	2	L	6	(1*3) + 2	5	0	FALSE	83	1	0	1	7930.1578517230327634024	KL	3	1	2
5.0.4.0	win	080416	15:14:16	1	1	PracBoth	6	recall_letter	42	448	exit	0	2	L	6	(1*3) + 2	5	0	FALSE	83	1	0	1	7930.1578517230327634024	KL	3	1	2
5.0.4.0	win	080416	15:14:16	1	1	PracBoth	6	letter_feedback	43	1500	0	0	2	L	6	(1*3) + 2	5	0	FALSE	83	1	0	1	7930.1578517230327634024	KL	5	2	4
5.0.4.0	win	080416	15:14:16	1	1	TestBoth	8	show_math	3	850	lbuttondown	0	3	L	1	(7/7) + 6	7	7	TRUE	0	0	0	0	7930.1578517230327634024		0	0	0
5.0.4.0	win	080416	15:14:16	1	1	TestBoth	8	solve_math	4	499	TRUE	1	3	L	1	(7/7) + 6	7	7	TRUE	100	0	0	0	7930.1578517230327634024		0	0	0
5.0.4.0	win	080416	15:14:16	1	1	TestBoth	8	show_letter	5	800	0	0	3	L	1	(7/7) + 6	7	7	TRUE	100	0	0	0	7930.1578517230327634024		0	0	0
5.0.4.0	win	080416	15:14:16	1	1	TestBoth	8	show_math	9	385	lbuttondown	0	3	L	2	(3/3) - 0	1	6	FALSE	100	0	0	0	7930.1578517230327634024		0	0	0
5.0.4.0	win	080416	15:14:16	1	1	TestBoth	8	solve_math	10	254	TRUE	0	3	L	2	(3/3) - 0	1	6	FALSE	50	1	1	0	7930.1578517230327634024		0	0	0
5.0.4.0	win	080416	15:14:16	1	1	TestBoth	8	show_letter	11	800	0	0	3	P	2	(3/3) - 0	1	6	FALSE	50	1	1	0	7930.1578517230327634024		0	0	0
5.0.4.0	win	080416	15:14:16	1	1	TestBoth	8	show_math	17	317	lbuttondown	0	3	P	3	(7/1) - 7	0	1	FALSE	50	1	1	0	7930.1578517230327634024		0	0	0
5.0.4.0	win	080416	15:14:16	1	1	TestBoth	8	solve_math	18	244	TRUE	0	3	P	3	(7/1) - 7	0	1	FALSE	33	2	2	0	7930.1578517230327634024		0	0	0
5.0.4.0	win	080416	15:14:16	1	1	TestBoth	8	show_letter	19	800	0	0	3	S	3	(7/1) - 7	0	1	FALSE	33	2	2	0	7930.1578517230327634024		0	0	0
5.0.4.0	win	080416	15:14:16	1	1	TestBoth	8	recall_letter	20	813	_	0	3	S	3	(7/1) - 7	0	1	FALSE	33	2	2	0	7930.1578517230327634024	_	0	0	0
5.0.4.0	win	080416	15:14:16	1	1	TestBoth	8	recall_letter	21	117	_	0	3	S	3	(7/1) - 7	0	1	FALSE	33	2	2	0	7930.1578517230327634024	__	0	0	0
5.0.4.0	win	080416	15:14:16	1	1	TestBoth	8	recall_letter	22	105	_	0	3	S	3	(7/1) - 7	0	1	FALSE	33	2	2	0	7930.1578517230327634024	___	0	0	0
5.0.4.0	win	080416	15:14:16	1	1	TestBoth	8	recall_letter	23	478	exit	0	3	S	3	(7/1) - 7	0	1	FALSE	33	2	2	0	7930.1578517230327634024	___	0	0	0
5.0.4.0	win	080416	15:14:16	1	1	TestBoth	8	letter_feedback	24	1500	0	0	3	S	3	(7/1) - 7	0	1	FALSE	33	2	2	0	7930.1578517230327634024	___	0	0	0
5.0.4.0	win	080416	15:14:16	1	1	TestBoth	8	show_math	27	463	lbuttondown	0	4	S	4	(3*3) + 5	14	14	TRUE	33	2	2	0	7930.1578517230327634024		0	0	0
5.0.4.0	win	080416	15:14:16	1	1	TestBoth	8	solve_math	28	1872	TRUE	1	4	S	4	(3*3) + 5	14	14	TRUE	50	2	2	0	7930.1578517230327634024		0	0	0
5.0.4.0	win	080416	15:14:16	1	1	TestBoth	8	show_letter	29	800	0	0	4	N	4	(3*3) + 5	14	14	TRUE	50	2	2	0	7930.1578517230327634024		0	0	0
5.0.4.0	win	080416	15:14:16	1	1	TestBoth	8	show_math	32	664	lbuttondown	0	4	N	5	(2*7) - 8	6	4	FALSE	50	2	2	0	7930.1578517230327634024		0	0	0
5.0.4.0	win	080416	15:14:16	1	1	TestBoth	8	solve_math	33	449	TRUE	0	4	N	5	(2*7) - 8	6	4	FALSE	40	3	3	0	7930.1578517230327634024		0	0	0
5.0.4.0	win	080416	15:14:16	1	1	TestBoth	8	show_letter	34	800	0	0	4	J	5	(2*7) - 8	6	4	FALSE	40	3	3	0	7930.1578517230327634024		0	0	0
5.0.4.0	win	080416	15:14:16	1	1	TestBoth	8	show_math	42	416	lbuttondown	0	4	J	6	(8/2) - 2	2	1	FALSE	40	3	3	0	7930.1578517230327634024		0	0	0
5.0.4.0	win	080416	15:14:16	1	1	TestBoth	8	solve_math	43	675	TRUE	0	4	J	6	(8/2) - 2	2	1	FALSE	33	4	4	0	7930.1578517230327634024		0	0	0
5.0.4.0	win	080416	15:14:16	1	1	TestBoth	8	show_letter	44	800	0	0	4	S	6	(8/2) - 2	2	1	FALSE	33	4	4	0	7930.1578517230327634024		0	0	0
5.0.4.0	win	080416	15:14:16	1	1	TestBoth	8	show_math	46	355	lbuttondown	0	4	S	7	(1/1) + 6	7	7	TRUE	33	4	4	0	7930.1578517230327634024		0	0	0
5.0.4.0	win	080416	15:14:16	1	1	TestBoth	8	solve_math	47	416	TRUE	1	4	S	7	(1/1) + 6	7	7	TRUE	43	4	4	0	7930.1578517230327634024		0	0	0
5.0.4.0	win	080416	15:14:16	1	1	TestBoth	8	show_letter	48	800	0	0	4	F	7	(1/1) + 6	7	7	TRUE	43	4	4	0	7930.1578517230327634024		0	0	0
5.0.4.0	win	080416	15:14:16	1	1	TestBoth	8	recall_letter	49	466	_	0	4	F	7	(1/1) + 6	7	7	TRUE	43	4	4	0	7930.1578517230327634024	_	0	0	0
5.0.4.0	win	080416	15:14:16	1	1	TestBoth	8	recall_letter	50	120	_	0	4	F	7	(1/1) + 6	7	7	TRUE	43	4	4	0	7930.1578517230327634024	__	0	0	0
5.0.4.0	win	080416	15:14:16	1	1	TestBoth	8	recall_letter	51	132	_	0	4	F	7	(1/1) + 6	7	7	TRUE	43	4	4	0	7930.1578517230327634024	___	0	0	0
5.0.4.0	win	080416	15:14:16	1	1	TestBoth	8	recall_letter	52	120	_	0	4	F	7	(1/1) + 6	7	7	TRUE	43	4	4	0	7930.1578517230327634024	____	0	0	0
5.0.4.0	win	080416	15:14:16	1	1	TestBoth	8	recall_letter	53	148	_	0	4	F	7	(1/1) + 6	7	7	TRUE	43	4	4	0	7930.1578517230327634024	_____	0	0	0
5.0.4.0	win	080416	15:14:16	1	1	TestBoth	8	recall_letter	54	151	_	0	4	F	7	(1/1) + 6	7	7	TRUE	43	4	4	0	7930.1578517230327634024	______	0	0	0
5.0.4.0	win	080416	15:14:16	1	1	TestBoth	8	recall_letter	55	130	_	0	4	F	7	(1/1) + 6	7	7	TRUE	43	4	4	0	7930.1578517230327634024	_______	0	0	0
5.0.4.0	win	080416	15:14:16	1	1	TestBoth	8	recall_letter	56	125	_	0	4	F	7	(1/1) + 6	7	7	TRUE	43	4	4	0	7930.1578517230327634024	________	0	0	0
5.0.4.0	win	080416	15:14:16	1	1	TestBoth	8	recall_letter	57	113	_	0	4	F	7	(1/1) + 6	7	7	TRUE	43	4	4	0	7930.1578517230327634024	_________	0	0	0
5.0.4.0	win	080416	15:14:16	1	1	TestBoth	8	recall_letter	58	141	_	0	4	F	7	(1/1) + 6	7	7	TRUE	43	4	4	0	7930.1578517230327634024	__________	0	0	0
5.0.4.0	win	080416	15:14:16	1	1	TestBoth	8	recall_letter	59	120	_	0	4	F	7	(1/1) + 6	7	7	TRUE	43	4	4	0	7930.1578517230327634024	___________	0	0	0
5.0.4.0	win	080416	15:14:16	1	1	TestBoth	8	recall_letter	60	564	exit	0	4	F	7	(1/1) + 6	7	7	TRUE	43	4	4	0	7930.1578517230327634024	___________	0	0	0
5.0.4.0	win	080416	15:14:16	1	1	TestBoth	8	letter_feedback	61	1500	0	0	4	F	7	(1/1) + 6	7	7	TRUE	43	4	4	0	7930.1578517230327634024	___________	0	0	0
5.0.4.0	win	080416	15:14:16	1	1	TestBoth	8	show_math	64	458	lbuttondown	0	6	F	8	(7*2) + 1	15	15	TRUE	43	4	4	0	7930.1578517230327634024		0	0	0
5.0.4.0	win	080416	15:14:16	1	1	TestBoth	8	solve_math	65	403	FALSE	0	6	F	8	(7*2) + 1	15	15	TRUE	38	5	5	0	7930.1578517230327634024		0	0	0
5.0.4.0	win	080416	15:14:16	1	1	TestBoth	8	show_letter	66	800	0	0	6	F	8	(7*2) + 1	15	15	TRUE	38	5	5	0	7930.1578517230327634024		0	0	0
5.0.4.0	win	080416	15:14:16	1	1	TestBoth	8	show_math	68	398	lbuttondown	0	6	F	9	(6/2) + 9	12	12	TRUE	38	5	5	0	7930.1578517230327634024		0	0	0
5.0.4.0	win	080416	15:14:16	1	1	TestBoth	8	solve_math	69	498	FALSE	0	6	F	9	(6/2) + 9	12	12	TRUE	33	6	6	0	7930.1578517230327634024		0	0	0
5.0.4.0	win	080416	15:14:16	1	1	TestBoth	8	show_letter	70	800	0	0	6	L	9	(6/2) + 9	12	12	TRUE	33	6	6	0	7930.1578517230327634024		0	0	0
5.0.4.0	win	080416	15:14:16	1	1	TestBoth	8	show_math	75	272	lbuttondown	0	6	L	10	(9/3) - 1	2	10	FALSE	33	6	6	0	7930.1578517230327634024		0	0	0
5.0.4.0	win	080416	15:14:16	1	1	TestBoth	8	solve_math	76	456	TRUE	0	6	L	10	(9/3) - 1	2	10	FALSE	30	7	7	0	7930.1578517230327634024		0	0	0
5.0.4.0	win	080416	15:14:16	1	1	TestBoth	8	show_letter	77	800	0	0	6	P	10	(9/3) - 1	2	10	FALSE	30	7	7	0	7930.1578517230327634024		0	0	0
5.0.4.0	win	080416	15:14:16	1	1	TestBoth	8	show_math	79	361	lbuttondown	0	6	P	11	(3*5) + 9	24	24	TRUE	30	7	7	0	7930.1578517230327634024		0	0	0
5.0.4.0	win	080416	15:14:16	1	1	TestBoth	8	solve_math	80	303	FALSE	0	6	P	11	(3*5) + 9	24	24	TRUE	27	8	8	0	7930.1578517230327634024		0	0	0
5.0.4.0	win	080416	15:14:16	1	1	TestBoth	8	show_letter	81	800	0	0	6	Y	11	(3*5) + 9	24	24	TRUE	27	8	8	0	7930.1578517230327634024		0	0	0
5.0.4.0	win	080416	15:14:16	1	1	TestBoth	8	show_math	83	381	lbuttondown	0	6	Y	12	(2/1) - 2	0	0	TRUE	27	8	8	0	7930.1578517230327634024		0	0	0
5.0.4.0	win	080416	15:14:16	1	1	TestBoth	8	solve_math	84	458	TRUE	1	6	Y	12	(2/1) - 2	0	0	TRUE	33	8	8	0	7930.1578517230327634024		0	0	0
5.0.4.0	win	080416	15:14:16	1	1	TestBoth	8	show_letter	85	800	0	0	6	N	12	(2/1) - 2	0	0	TRUE	33	8	8	0	7930.1578517230327634024		0	0	0
5.0.4.0	win	080416	15:14:16	1	1	TestBoth	8	show_math	88	322	lbuttondown	0	6	N	13	(6/6) + 6	7	8	FALSE	33	8	8	0	7930.1578517230327634024		0	0	0
5.0.4.0	win	080416	15:14:16	1	1	TestBoth	8	solve_math	89	313	FALSE	1	6	N	13	(6/6) + 6	7	8	FALSE	38	8	8	0	7930.1578517230327634024		0	0	0
5.0.4.0	win	080416	15:14:16	1	1	TestBoth	8	show_letter	90	800	0	0	6	Q	13	(6/6) + 6	7	8	FALSE	38	8	8	0	7930.1578517230327634024		0	0	0
5.0.4.0	win	080416	15:14:16	1	1	TestBoth	8	recall_letter	91	1071	exit	0	6	Q	13	(6/6) + 6	7	8	FALSE	38	8	8	0	7930.1578517230327634024		0	0	0
5.0.4.0	win	080416	15:14:16	1	1	TestBoth	8	letter_feedback	92	1500	0	0	6	Q	13	(6/6) + 6	7	8	FALSE	38	8	8	0	7930.1578517230327634024		0	0	0
5.0.4.0	win	080416	15:14:16	1	1	TestBoth	8	show_math	96	441	lbuttondown	0	5	Q	14	(4/1) + 7	11	8	FALSE	38	8	8	0	7930.1578517230327634024		0	0	0
5.0.4.0	win	080416	15:14:16	1	1	TestBoth	8	solve_math	97	651	TRUE	0	5	Q	14	(4/1) + 7	11	8	FALSE	36	9	9	0	7930.1578517230327634024		0	0	0
5.0.4.0	win	080416	15:14:16	1	1	TestBoth	8	show_letter	98	800	0	0	5	H	14	(4/1) + 7	11	8	FALSE	36	9	9	0	7930.1578517230327634024		0	0	0
5.0.4.0	win	080416	15:14:16	1	1	TestBoth	8	show_math	101	443	lbuttondown	0	5	H	15	(3*2) - 3	3	10	FALSE	36	9	9	0	7930.1578517230327634024		0	0	0
5.0.4.0	win	080416	15:14:16	1	1	TestBoth	8	solve_math	102	341	FALSE	1	5	H	15	(3*2) - 3	3	10	FALSE	40	9	9	0	7930.1578517230327634024		0	0	0
5.0.4.0	win	080416	15:14:16	1	1	TestBoth	8	show_letter	103	800	0	0	5	N	15	(3*2) - 3	3	10	FALSE	40	9	9	0	7930.1578517230327634024		0	0	0
5.0.4.0	win	080416	15:14:16	1	1	TestBoth	8	show_math	107	226	lbuttondown	0	5	N	16	(2*5) - 3	7	1	FALSE	40	9	9	0	7930.1578517230327634024		0	0	0
5.0.4.0	win	080416	15:14:16	1	1	TestBoth	8	solve_math	108	140	TRUE	0	5	N	16	(2*5) - 3	7	1	FALSE	38	10	10	0	7930.1578517230327634024		0	0	0
5.0.4.0	win	080416	15:14:16	1	1	TestBoth	8	show_letter	109	800	0	0	5	R	16	(2*5) - 3	7	1	FALSE	38	10	10	0	7930.1578517230327634024		0	0	0
5.0.4.0	win	080416	15:14:16	1	1	TestBoth	8	show_math	115	216	lbuttondown	0	5	R	17	(2/2) - 1	0	1	FALSE	38	10	10	0	7930.1578517230327634024		0	0	0
5.0.4.0	win	080416	15:14:16	1	1	TestBoth	8	solve_math	116	483	FALSE	1	5	R	17	(2/2) - 1	0	1	FALSE	41	10	10	0	7930.1578517230327634024		0	0	0
5.0.4.0	win	080416	15:14:16	1	1	TestBoth	8	show_letter	117	800	0	0	5	L	17	(2/2) - 1	0	1	FALSE	41	10	10	0	7930.1578517230327634024		0	0	0
5.0.4.0	win	080416	15:14:16	1	1	TestBoth	8	show_math	121	690	lbuttondown	0	5	L	18	(1*2) - 2	0	3	FALSE	41	10	10	0	7930.1578517230327634024		0	0	0
5.0.4.0	win	080416	15:14:16	1	1	TestBoth	8	solve_math	122	434	TRUE	0	5	L	18	(1*2) - 2	0	3	FALSE	39	11	11	0	7930.1578517230327634024		0	0	0
5.0.4.0	win	080416	15:14:16	1	1	TestBoth	8	show_letter	123	800	0	0	5	J	18	(1*2) - 2	0	3	FALSE	39	11	11	0	7930.1578517230327634024		0	0	0
5.0.4.0	win	080416	15:14:16	1	1	TestBoth	8	recall_letter	124	1244	J	0	5	J	18	(1*2) - 2	0	3	FALSE	39	11	11	0	7930.1578517230327634024	J	0	0	0
5.0.4.0	win	080416	15:14:16	1	1	TestBoth	8	recall_letter	125	595	R	0	5	J	18	(1*2) - 2	0	3	FALSE	39	11	11	0	7930.1578517230327634024	JR	0	0	0
5.0.4.0	win	080416	15:14:16	1	1	TestBoth	8	recall_letter	126	428	J	0	5	J	18	(1*2) - 2	0	3	FALSE	39	11	11	0	7930.1578517230327634024	JRJ	0	0	0
5.0.4.0	win	080416	15:14:16	1	1	TestBoth	8	recall_letter	127	1251	clear	0	5	J	18	(1*2) - 2	0	3	FALSE	39	11	11	0	7930.1578517230327634024		0	0	0
5.0.4.0	win	080416	15:14:16	1	1	TestBoth	8	recall_letter	128	1130	J	0	5	J	18	(1*2) - 2	0	3	FALSE	39	11	11	0	7930.1578517230327634024	J	0	0	0
5.0.4.0	win	080416	15:14:16	1	1	TestBoth	8	recall_letter	129	125	N	0	5	J	18	(1*2) - 2	0	3	FALSE	39	11	11	0	7930.1578517230327634024	JN	0	0	0
5.0.4.0	win	080416	15:14:16	1	1	TestBoth	8	recall_letter	130	337	R	0	5	J	18	(1*2) - 2	0	3	FALSE	39	11	11	0	7930.1578517230327634024	JNR	0	0	0
5.0.4.0	win	080416	15:14:16	1	1	TestBoth	8	recall_letter	131	332	J	0	5	J	18	(1*2) - 2	0	3	FALSE	39	11	11	0	7930.1578517230327634024	JNRJ	0	0	0
5.0.4.0	win	080416	15:14:16	1	1	TestBoth	8	recall_letter	132	440	exit	0	5	J	18	(1*2) - 2	0	3	FALSE	39	11	11	0	7930.1578517230327634024	JNRJ	0	0	0
5.0.4.0	win	080416	15:14:16	1	1	TestBoth	8	letter_feedback	133	1500	0	0	5	J	18	(1*2) - 2	0	3	FALSE	39	11	11	0	7930.1578517230327634024	JNRJ	2	0	0
5.0.4.0	win	080416	15:14:16	1	1	TestBoth	8	show_math	136	1443	lbuttondown	0	7	J	19	(9/1) - 1	8	8	TRUE	39	11	11	0	7930.1578517230327634024		2	0	0
5.0.4.0	win	080416	15:14:16	1	1	TestBoth	8	solve_math	137	741	FALSE	0	7	J	19	(9/1) - 1	8	8	TRUE	37	12	12	0	7930.1578517230327634024		2	0	0
5.0.4.0	win	080416	15:14:16	1	1	TestBoth	8	show_letter	138	800	0	0	7	H	19	(9/1) - 1	8	8	TRUE	37	12	12	0	7930.1578517230327634024		2	0	0
5.0.4.0	win	080416	15:14:16	1	1	TestBoth	8	show_math	140	2962	lbuttondown	0	7	H	20	(8/8) + 2	3	3	TRUE	37	12	12	0	7930.1578517230327634024		2	0	0
5.0.4.0	win	080416	15:14:16	1	1	TestBoth	8	solve_math	141	719	FALSE	0	7	H	20	(8/8) + 2	3	3	TRUE	35	13	13	0	7930.1578517230327634024		2	0	0
5.0.4.0	win	080416	15:14:16	1	1	TestBoth	8	show_letter	142	800	0	0	7	P	20	(8/8) + 2	3	3	TRUE	35	13	13	0	7930.1578517230327634024		2	0	0
5.0.4.0	win	080416	15:14:16	1	1	TestBoth	8	show_math	145	540	lbuttondown	0	7	P	21	(1*4) + 5	9	11	FALSE	35	13	13	0	7930.1578517230327634024		2	0	0
5.0.4.0	win	080416	15:14:16	1	1	TestBoth	8	solve_math	146	899	FALSE	1	7	P	21	(1*4) + 5	9	11	FALSE	38	13	13	0	7930.1578517230327634024		2	0	0
5.0.4.0	win	080416	15:14:16	1	1	TestBoth	8	show_letter	147	800	0	0	7	N	21	(1*4) + 5	9	11	FALSE	38	13	13	0	7930.1578517230327634024		2	0	0
5.0.4.0	win	080416	15:14:16	1	1	TestBoth	8	show_math	149	346	lbuttondown	0	7	N	22	(3*4) + 6	18	18	TRUE	38	13	13	0	7930.1578517230327634024		2	0	0
5.0.4.0	win	080416	15:14:16	1	1	TestBoth	8	solve_math	150	351	TRUE	1	7	N	22	(3*4) + 6	18	18	TRUE	41	13	13	0	7930.1578517230327634024		2	0	0
5.0.4.0	win	080416	15:14:16	1	1	TestBoth	8	show_letter	151	800	0	0	7	F	22	(3*4) + 6	18	18	TRUE	41	13	13	0	7930.1578517230327634024		2	0	0
5.0.4.0	win	080416	15:14:16	1	1	TestBoth	8	show_math	154	604	lbuttondown	0	7	F	23	(5/5) - 1	0	0	TRUE	41	13	13	0	7930.1578517230327634024		2	0	0
5.0.4.0	win	080416	15:14:16	1	1	TestBoth	8	solve_math	155	1039	FALSE	0	7	F	23	(5/5) - 1	0	0	TRUE	39	14	14	0	7930.1578517230327634024		2	0	0
5.0.4.0	win	080416	15:14:16	1	1	TestBoth	8	show_letter	156	800	0	0	7	K	23	(5/5) - 1	0	0	TRUE	39	14	14	0	7930.1578517230327634024		2	0	0
5.0.4.0	win	080416	15:14:16	1	1	TestBoth	8	show_math	158	809	lbuttondown	0	7	K	24	(3/1) + 8	11	11	TRUE	39	14	14	0	7930.1578517230327634024		2	0	0
5.0.4.0	win	080416	15:14:16	1	1	TestBoth	8	solve_math	159	1308	TRUE	1	7	K	24	(3/1) + 8	11	11	TRUE	42	14	14	0	7930.1578517230327634024		2	0	0
5.0.4.0	win	080416	15:14:16	1	1	TestBoth	8	show_letter	160	800	0	0	7	R	24	(3/1) + 8	11	11	TRUE	42	14	14	0	7930.1578517230327634024		2	0	0
5.0.4.0	win	080416	15:14:16	1	1	TestBoth	8	show_math	163	402	lbuttondown	0	7	R	25	(4*2) + 4	12	8	FALSE	42	14	14	0	7930.1578517230327634024		2	0	0
5.0.4.0	win	080416	15:14:16	1	1	TestBoth	8	solve_math	164	222	FALSE	1	7	R	25	(4*2) + 4	12	8	FALSE	44	14	14	0	7930.1578517230327634024		2	0	0
5.0.4.0	win	080416	15:14:16	1	1	TestBoth	8	show_letter	165	800	0	0	7	J	25	(4*2) + 4	12	8	FALSE	44	14	14	0	7930.1578517230327634024		2	0	0
5.0.4.0	win	080416	15:14:16	1	1	TestBoth	8	recall_letter	166	1584	J	0	7	J	25	(4*2) + 4	12	8	FALSE	44	14	14	0	7930.1578517230327634024	J	2	0	0
5.0.4.0	win	080416	15:14:16	1	1	TestBoth	8	recall_letter	167	121	N	0	7	J	25	(4*2) + 4	12	8	FALSE	44	14	14	0	7930.1578517230327634024	JN	2	0	0
5.0.4.0	win	080416	15:14:16	1	1	TestBoth	8	recall_letter	168	837	J	0	7	J	25	(4*2) + 4	12	8	FALSE	44	14	14	0	7930.1578517230327634024	JNJ	2	0	0
5.0.4.0	win	080416	15:14:16	1	1	TestBoth	8	recall_letter	169	396	L	0	7	J	25	(4*2) + 4	12	8	FALSE	44	14	14	0	7930.1578517230327634024	JNJL	2	0	0
5.0.4.0	win	080416	15:14:16	1	1	TestBoth	8	recall_letter	170	477	exit	0	7	J	25	(4*2) + 4	12	8	FALSE	44	14	14	0	7930.1578517230327634024	JNJL	2	0	0
5.0.4.0	win	080416	15:14:16	1	1	TestBoth	8	letter_feedback	171	1500	0	0	7	J	25	(4*2) + 4	12	8	FALSE	44	14	14	0	7930.1578517230327634024	JNJL	2	0	0
5.0.4.0	win	080416	15:14:16	1	1	TestBoth	8	show_math	174	702	lbuttondown	0	6	J	26	(2*4) - 8	0	0	TRUE	44	14	14	0	7930.1578517230327634024		2	0	0
5.0.4.0	win	080416	15:14:16	1	1	TestBoth	8	solve_math	175	454	FALSE	0	6	J	26	(2*4) - 8	0	0	TRUE	42	15	15	0	7930.1578517230327634024		2	0	0
5.0.4.0	win	080416	15:14:16	1	1	TestBoth	8	show_letter	176	800	0	0	6	P	26	(2*4) - 8	0	0	TRUE	42	15	15	0	7930.1578517230327634024		2	0	0
5.0.4.0	win	080416	15:14:16	1	1	TestBoth	8	show_math	178	431	lbuttondown	0	6	P	27	(5*3) - 2	13	13	TRUE	42	15	15	0	7930.1578517230327634024		2	0	0
5.0.4.0	win	080416	15:14:16	1	1	TestBoth	8	solve_math	179	529	TRUE	1	6	P	27	(5*3) - 2	13	13	TRUE	44	15	15	0	7930.1578517230327634024		2	0	0
5.0.4.0	win	080416	15:14:16	1	1	TestBoth	8	show_letter	180	800	0	0	6	J	27	(5*3) - 2	13	13	TRUE	44	15	15	0	7930.1578517230327634024		2	0	0
5.0.4.0	win	080416	15:14:16	1	1	TestBoth	8	show_math	186	1182	lbuttondown	0	6	J	28	(6/3) - 0	2	11	FALSE	44	15	15	0	7930.1578517230327634024		2	0	0
5.0.4.0	win	080416	15:14:16	1	1	TestBoth	8	solve_math	187	1250	FALSE	1	6	J	28	(6/3) - 0	2	11	FALSE	46	15	15	0	7930.1578517230327634024		2	0	0
5.0.4.0	win	080416	15:14:16	1	1	TestBoth	8	show_letter	188	800	0	0	6	R	28	(6/3) - 0	2	11	FALSE	46	15	15	0	7930.1578517230327634024		2	0	0
5.0.4.0	win	080416	15:14:16	1	1	TestBoth	8	show_math	191	3091	lbuttondown	0	6	R	29	(8/1) + 9	17	11	FALSE	46	15	15	0	7930.1578517230327634024		2	0	0
5.0.4.0	win	080416	15:14:16	1	1	TestBoth	8	solve_math	192	987	FALSE	1	6	R	29	(8/1) + 9	17	11	FALSE	48	15	15	0	7930.1578517230327634024		2	0	0
5.0.4.0	win	080416	15:14:16	1	1	TestBoth	8	show_letter	193	800	0	0	6	Y	29	(8/1) + 9	17	11	FALSE	48	15	15	0	7930.1578517230327634024		2	0	0
5.0.4.0	win	080416	15:14:16	1	1	TestBoth	8	show_math	196	726	lbuttondown	0	6	Y	30	(1*5) + 1	6	1	FALSE	48	15	15	0	7930.1578517230327634024		2	0	0
5.0.4.0	win	080416	15:14:16	1	1	TestBoth	8	solve_math	197	404	TRUE	0	6	Y	30	(1*5) + 1	6	1	FALSE	47	16	16	0	7930.1578517230327634024		2	0	0
5.0.4.0	win	080416	15:14:16	1	1	TestBoth	8	show_letter	198	800	0	0	6	S	30	(1*5) + 1	6	1	FALSE	47	16	16	0	7930.1578517230327634024		2	0	0
5.0.4.0	win	080416	15:14:16	1	1	TestBoth	8	show_math	200	367	lbuttondown	0	6	S	31	(2*3) + 8	14	14	TRUE	47	16	16	0	7930.1578517230327634024		2	0	0
5.0.4.0	win	080416	15:14:16	1	1	TestBoth	8	solve_math	201	732	FALSE	0	6	S	31	(2*3) + 8	14	14	TRUE	45	17	17	0	7930.1578517230327634024		2	0	0
5.0.4.0	win	080416	15:14:16	1	1	TestBoth	8	show_letter	202	800	0	0	6	F	31	(2*3) + 8	14	14	TRUE	45	17	17	0	7930.1578517230327634024		2	0	0
5.0.4.0	win	080416	15:14:16	1	1	TestBoth	8	recall_letter	203	1129	R	0	6	F	31	(2*3) + 8	14	14	TRUE	45	17	17	0	7930.1578517230327634024	R	2	0	0
5.0.4.0	win	080416	15:14:16	1	1	TestBoth	8	recall_letter	204	285	N	0	6	F	31	(2*3) + 8	14	14	TRUE	45	17	17	0	7930.1578517230327634024	RN	2	0	0
5.0.4.0	win	080416	15:14:16	1	1	TestBoth	8	recall_letter	205	138	J	0	6	F	31	(2*3) + 8	14	14	TRUE	45	17	17	0	7930.1578517230327634024	RNJ	2	0	0
5.0.4.0	win	080416	15:14:16	1	1	TestBoth	8	recall_letter	206	750	exit	0	6	F	31	(2*3) + 8	14	14	TRUE	45	17	17	0	7930.1578517230327634024	RNJ	2	0	0
5.0.4.0	win	080416	15:14:16	1	1	TestBoth	8	letter_feedback	207	1500	0	0	6	F	31	(2*3) + 8	14	14	TRUE	45	17	17	0	7930.1578517230327634024	RNJ	2	0	0
5.0.4.0	win	080416	15:14:16	1	1	TestBoth	8	show_math	211	403	lbuttondown	0	3	F	32	(4*3) - 5	7	16	FALSE	45	17	17	0	7930.1578517230327634024		2	0	0
5.0.4.0	win	080416	15:14:16	1	1	TestBoth	8	solve_math	212	495	TRUE	0	3	F	32	(4*3) - 5	7	16	FALSE	44	18	18	0	7930.1578517230327634024		2	0	0
5.0.4.0	win	080416	15:14:16	1	1	TestBoth	8	show_letter	213	800	0	0	3	N	32	(4*3) - 5	7	16	FALSE	44	18	18	0	7930.1578517230327634024		2	0	0
5.0.4.0	win	080416	15:14:16	1	1	TestBoth	8	show_math	215	374	lbuttondown	0	3	N	33	(2*2) + 4	8	8	TRUE	44	18	18	0	7930.1578517230327634024		2	0	0
5.0.4.0	win	080416	15:14:16	1	1	TestBoth	8	solve_math	216	259	FALSE	0	3	N	33	(2*2) + 4	8	8	TRUE	42	19	19	0	7930.1578517230327634024		2	0	0
5.0.4.0	win	080416	15:14:16	1	1	TestBoth	8	show_letter	217	800	0	0	3	R	33	(2*2) + 4	8	8	TRUE	42	19	19	0	7930.1578517230327634024		2	0	0
5.0.4.0	win	080416	15:14:16	1	1	TestBoth	8	show_math	219	435	lbuttondown	0	3	R	34	(5/1) + 1	6	6	TRUE	42	19	19	0	7930.1578517230327634024		2	0	0
5.0.4.0	win	080416	15:14:16	1	1	TestBoth	8	solve_math	220	5205	TRUE	1	3	R	34	(5/1) + 1	6	6	TRUE	44	19	19	0	7930.1578517230327634024		2	0	0
5.0.4.0	win	080416	15:14:16	1	1	TestBoth	8	show_letter	221	800	0	0	3	H	34	(5/1) + 1	6	6	TRUE	44	19	19	0	7930.1578517230327634024		2	0	0
5.0.4.0	win	080416	15:14:16	1	1	TestBoth	8	recall_letter	222	880	T	0	3	H	34	(5/1) + 1	6	6	TRUE	44	19	19	0	7930.1578517230327634024	T	2	0	0
5.0.4.0	win	080416	15:14:16	1	1	TestBoth	8	recall_letter	223	222	Q	0	3	H	34	(5/1) + 1	6	6	TRUE	44	19	19	0	7930.1578517230327634024	TQ	2	0	0
5.0.4.0	win	080416	15:14:16	1	1	TestBoth	8	recall_letter	224	646	exit	0	3	H	34	(5/1) + 1	6	6	TRUE	44	19	19	0	7930.1578517230327634024	TQ	2	0	0
5.0.4.0	win	080416	15:14:16	1	1	TestBoth	8	letter_feedback	225	1500	0	0	3	H	34	(5/1) + 1	6	6	TRUE	44	19	19	0	7930.1578517230327634024	TQ	2	0	0
5.0.4.0	win	080416	15:14:16	1	1	TestBoth	8	show_math	228	408	lbuttondown	0	4	H	35	(2*6) + 9	21	21	TRUE	44	19	19	0	7930.1578517230327634024		2	0	0
5.0.4.0	win	080416	15:14:16	1	1	TestBoth	8	solve_math	229	4027	TRUE	1	4	H	35	(2*6) + 9	21	21	TRUE	46	19	19	0	7930.1578517230327634024		2	0	0
5.0.4.0	win	080416	15:14:16	1	1	TestBoth	8	show_letter	230	800	0	0	4	F	35	(2*6) + 9	21	21	TRUE	46	19	19	0	7930.1578517230327634024		2	0	0
5.0.4.0	win	080416	15:14:16	1	1	TestBoth	8	show_math	232	3348	lbuttondown	0	4	F	36	(6*2) + 4	16	16	TRUE	46	19	19	0	7930.1578517230327634024		2	0	0
5.0.4.0	win	080416	15:14:16	1	1	TestBoth	8	solve_math	233	330	FALSE	0	4	F	36	(6*2) + 4	16	16	TRUE	44	20	20	0	7930.1578517230327634024		2	0	0
5.0.4.0	win	080416	15:14:16	1	1	TestBoth	8	show_letter	234	800	0	0	4	T	36	(6*2) + 4	16	16	TRUE	44	20	20	0	7930.1578517230327634024		2	0	0
5.0.4.0	win	080416	15:14:16	1	1	TestBoth	8	show_math	237	543	lbuttondown	0	4	T	37	(4/2) - 1	1	5	FALSE	44	20	20	0	7930.1578517230327634024		2	0	0
5.0.4.0	win	080416	15:14:16	1	1	TestBoth	8	solve_math	238	317	TRUE	0	4	T	37	(4/2) - 1	1	5	FALSE	43	21	21	0	7930.1578517230327634024		2	0	0
5.0.4.0	win	080416	15:14:16	1	1	TestBoth	8	show_letter	239	800	0	0	4	Y	37	(4/2) - 1	1	5	FALSE	43	21	21	0	7930.1578517230327634024		2	0	0
5.0.4.0	win	080416	15:14:16	1	1	TestBoth	8	show_math	242	3995	lbuttondown	0	4	Y	38	(8*2) + 3	19	25	FALSE	43	21	21	0	7930.1578517230327634024		2	0	0
5.0.4.0	win	080416	15:14:16	1	1	TestBoth	8	solve_math	243	1519	TRUE	0	4	Y	38	(8*2) + 3	19	25	FALSE	42	22	22	0	7930.1578517230327634024		2	0	0
5.0.4.0	win	080416	15:14:16	1	1	TestBoth	8	show_letter	244	800	0	0	4	Q	38	(8*2) + 3	19	25	FALSE	42	22	22	0	7930.1578517230327634024		2	0	0
5.0.4.0	win	080416	15:14:16	1	1	TestBoth	8	recall_letter	245	765	Q	0	4	Q	38	(8*2) + 3	19	25	FALSE	42	22	22	0	7930.1578517230327634024	Q	2	0	0
5.0.4.0	win	080416	15:14:16	1	1	TestBoth	8	recall_letter	246	463	exit	0	4	Q	38	(8*2) + 3	19	25	FALSE	42	22	22	0	7930.1578517230327634024	Q	2	0	0
5.0.4.0	win	080416	15:14:16	1	1	TestBoth	8	letter_feedback	247	1500	0	0	4	Q	38	(8*2) + 3	19	25	FALSE	42	22	22	0	7930.1578517230327634024	Q	2	0	0
5.0.4.0	win	080416	15:14:16	1	1	TestBoth	8	show_math	252	465	lbuttondown	0	6	Q	39	(9/9) - 1	0	0	TRUE	42	22	22	0	7930.1578517230327634024		2	0	0
5.0.4.0	win	080416	15:14:16	1	1	TestBoth	8	solve_math	253	498	FALSE	0	6	Q	39	(9/9) - 1	0	0	TRUE	41	23	23	0	7930.1578517230327634024		2	0	0
5.0.4.0	win	080416	15:14:16	1	1	TestBoth	8	show_letter	254	800	0	0	6	K	39	(9/9) - 1	0	0	TRUE	41	23	23	0	7930.1578517230327634024		2	0	0
5.0.4.0	win	080416	15:14:16	1	1	TestBoth	8	show_math	261	2487	lbuttondown	0	6	K	40	(4/4) + 1	2	0	FALSE	41	23	23	0	7930.1578517230327634024		2	0	0
5.0.4.0	win	080416	15:14:16	1	1	TestBoth	8	solve_math	262	1127	FALSE	1	6	K	40	(4/4) + 1	2	0	FALSE	43	23	23	0	7930.1578517230327634024		2	0	0
5.0.4.0	win	080416	15:14:16	1	1	TestBoth	8	show_letter	263	800	0	0	6	Q	40	(4/4) + 1	2	0	FALSE	43	23	23	0	7930.1578517230327634024		2	0	0
5.0.4.0	win	080416	15:14:16	1	1	TestBoth	8	show_math	265	2981	lbuttondown	0	6	Q	41	(8/4) + 9	11	11	TRUE	43	23	23	0	7930.1578517230327634024		2	0	0
5.0.4.0	win	080416	15:14:16	1	1	TestBoth	8	solve_math	266	1225	TRUE	1	6	Q	41	(8/4) + 9	11	11	TRUE	44	23	23	0	7930.1578517230327634024		2	0	0
5.0.4.0	win	080416	15:14:16	1	1	TestBoth	8	show_letter	267	800	0	0	6	Y	41	(8/4) + 9	11	11	TRUE	44	23	23	0	7930.1578517230327634024		2	0	0
5.0.4.0	win	080416	15:14:16	1	1	TestBoth	8	show_math	270	1706	lbuttondown	0	6	Y	42	(5*2) - 2	8	6	FALSE	44	23	23	0	7930.1578517230327634024		2	0	0
5.0.4.0	win	080416	15:14:16	1	1	TestBoth	8	solve_math	271	1338	FALSE	1	6	Y	42	(5*2) - 2	8	6	FALSE	45	23	23	0	7930.1578517230327634024		2	0	0
5.0.4.0	win	080416	15:14:16	1	1	TestBoth	8	show_letter	272	800	0	0	6	P	42	(5*2) - 2	8	6	FALSE	45	23	23	0	7930.1578517230327634024		2	0	0
5.0.4.0	win	080416	15:14:16	1	1	TestBoth	8	show_math	275	1903	lbuttondown	0	6	P	43	(8*2) - 3	13	4	FALSE	45	23	23	0	7930.1578517230327634024		2	0	0
5.0.4.0	win	080416	15:14:16	1	1	TestBoth	8	solve_math	276	622	FALSE	1	6	P	43	(8*2) - 3	13	4	FALSE	47	23	23	0	7930.1578517230327634024		2	0	0
5.0.4.0	win	080416	15:14:16	1	1	TestBoth	8	show_letter	277	800	0	0	6	N	43	(8*2) - 3	13	4	FALSE	47	23	23	0	7930.1578517230327634024		2	0	0
5.0.4.0	win	080416	15:14:16	1	1	TestBoth	8	show_math	281	2031	lbuttondown	0	6	N	44	(2/2) - 0	1	1	TRUE	47	23	23	0	7930.1578517230327634024		2	0	0
5.0.4.0	win	080416	15:14:16	1	1	TestBoth	8	solve_math	282	522	TRUE	1	6	N	44	(2/2) - 0	1	1	TRUE	48	23	23	0	7930.1578517230327634024		2	0	0
5.0.4.0	win	080416	15:14:16	1	1	TestBoth	8	show_letter	283	800	0	0	6	F	44	(2/2) - 0	1	1	TRUE	48	23	23	0	7930.1578517230327634024		2	0	0
5.0.4.0	win	080416	15:14:16	1	1	TestBoth	8	recall_letter	284	2224	K	0	6	F	44	(2/2) - 0	1	1	TRUE	48	23	23	0	7930.1578517230327634024	K	2	0	0
5.0.4.0	win	080416	15:14:16	1	1	TestBoth	8	recall_letter	285	752	Q	0	6	F	44	(2/2) - 0	1	1	TRUE	48	23	23	0	7930.1578517230327634024	KQ	2	0	0
5.0.4.0	win	080416	15:14:16	1	1	TestBoth	8	recall_letter	286	395	Y	0	6	F	44	(2/2) - 0	1	1	TRUE	48	23	23	0	7930.1578517230327634024	KQY	2	0	0
5.0.4.0	win	080416	15:14:16	1	1	TestBoth	8	recall_letter	287	492	P	0	6	F	44	(2/2) - 0	1	1	TRUE	48	23	23	0	7930.1578517230327634024	KQYP	2	0	0
5.0.4.0	win	080416	15:14:16	1	1	TestBoth	8	recall_letter	288	593	N	0	6	F	44	(2/2) - 0	1	1	TRUE	48	23	23	0	7930.1578517230327634024	KQYPN	2	0	0
5.0.4.0	win	080416	15:14:16	1	1	TestBoth	8	recall_letter	289	401	F	0	6	F	44	(2/2) - 0	1	1	TRUE	48	23	23	0	7930.1578517230327634024	KQYPNF	2	0	0
5.0.4.0	win	080416	15:14:16	1	1	TestBoth	8	recall_letter	290	674	exit	0	6	F	44	(2/2) - 0	1	1	TRUE	48	23	23	0	7930.1578517230327634024	KQYPNF	2	0	0
5.0.4.0	win	080416	15:14:16	1	1	TestBoth	8	letter_feedback	291	1500	0	0	6	F	44	(2/2) - 0	1	1	TRUE	48	23	23	0	7930.1578517230327634024	KQYPNF	8	1	6
5.0.4.0	win	080416	15:14:16	1	1	TestBoth	8	show_math	295	1699	lbuttondown	0	5	F	45	(3*5) - 5	10	12	FALSE	48	23	23	0	7930.1578517230327634024		8	1	6
5.0.4.0	win	080416	15:14:16	1	1	TestBoth	8	solve_math	296	731	FALSE	1	5	F	45	(3*5) - 5	10	12	FALSE	49	23	23	0	7930.1578517230327634024		8	1	6
5.0.4.0	win	080416	15:14:16	1	1	TestBoth	8	show_letter	297	800	0	0	5	Q	45	(3*5) - 5	10	12	FALSE	49	23	23	0	7930.1578517230327634024		8	1	6
5.0.4.0	win	080416	15:14:16	1	1	TestBoth	8	show_math	302	2295	lbuttondown	0	5	Q	46	(8/8) - 1	0	5	FALSE	49	23	23	0	7930.1578517230327634024		8	1	6
5.0.4.0	win	080416	15:14:16	1	1	TestBoth	8	solve_math	303	903	FALSE	1	5	Q	46	(8/8) - 1	0	5	FALSE	50	23	23	0	7930.1578517230327634024		8	1	6
5.0.4.0	win	080416	15:14:16	1	1	TestBoth	8	show_letter	304	800	0	0	5	F	46	(8/8) - 1	0	5	FALSE	50	23	23	0	7930.1578517230327634024		8	1	6
5.0.4.0	win	080416	15:14:16	1	1	TestBoth	8	show_math	307	2797	lbuttondown	0	5	F	47	(4/2) + 8	10	11	FALSE	50	23	23	0	7930.1578517230327634024		8	1	6
5.0.4.0	win	080416	15:14:16	1	1	TestBoth	8	solve_math	308	849	FALSE	1	5	F	47	(4/2) + 8	10	11	FALSE	51	23	23	0	7930.1578517230327634024		8	1	6
5.0.4.0	win	080416	15:14:16	1	1	TestBoth	8	show_letter	309	800	0	0	5	S	47	(4/2) + 8	10	11	FALSE	51	23	23	0	7930.1578517230327634024		8	1	6
5.0.4.0	win	080416	15:14:16	1	1	TestBoth	8	show_math	311	1946	lbuttondown	0	5	S	48	(2*5) + 6	16	16	TRUE	51	23	23	0	7930.1578517230327634024		8	1	6
5.0.4.0	win	080416	15:14:16	1	1	TestBoth	8	solve_math	312	623	TRUE	1	5	S	48	(2*5) + 6	16	16	TRUE	52	23	23	0	7930.1578517230327634024		8	1	6
5.0.4.0	win	080416	15:14:16	1	1	TestBoth	8	show_letter	313	800	0	0	5	J	48	(2*5) + 6	16	16	TRUE	52	23	23	0	7930.1578517230327634024		8	1	6
5.0.4.0	win	080416	15:14:16	1	1	TestBoth	8	show_math	316	1489	lbuttondown	0	5	J	49	(1*6) - 4	2	2	TRUE	52	23	23	0	7930.1578517230327634024		8	1	6
5.0.4.0	win	080416	15:14:16	1	1	TestBoth	8	solve_math	317	897	TRUE	1	5	J	49	(1*6) - 4	2	2	TRUE	53	23	23	0	7930.1578517230327634024		8	1	6
5.0.4.0	win	080416	15:14:16	1	1	TestBoth	8	show_letter	318	800	0	0	5	L	49	(1*6) - 4	2	2	TRUE	53	23	23	0	7930.1578517230327634024		8	1	6
5.0.4.0	win	080416	15:14:16	1	1	TestBoth	8	recall_letter	319	1728	Q	0	5	L	49	(1*6) - 4	2	2	TRUE	53	23	23	0	7930.1578517230327634024	Q	8	1	6
5.0.4.0	win	080416	15:14:16	1	1	TestBoth	8	recall_letter	320	452	F	0	5	L	49	(1*6) - 4	2	2	TRUE	53	23	23	0	7930.1578517230327634024	QF	8	1	6
5.0.4.0	win	080416	15:14:16	1	1	TestBoth	8	recall_letter	321	819	S	0	5	L	49	(1*6) - 4	2	2	TRUE	53	23	23	0	7930.1578517230327634024	QFS	8	1	6
5.0.4.0	win	080416	15:14:16	1	1	TestBoth	8	recall_letter	322	834	J	0	5	L	49	(1*6) - 4	2	2	TRUE	53	23	23	0	7930.1578517230327634024	QFSJ	8	1	6
5.0.4.0	win	080416	15:14:16	1	1	TestBoth	8	recall_letter	323	1546	L	0	5	L	49	(1*6) - 4	2	2	TRUE	53	23	23	0	7930.1578517230327634024	QFSJL	8	1	6
5.0.4.0	win	080416	15:14:16	1	1	TestBoth	8	recall_letter	324	533	exit	0	5	L	49	(1*6) - 4	2	2	TRUE	53	23	23	0	7930.1578517230327634024	QFSJL	8	1	6
5.0.4.0	win	080416	15:14:16	1	1	TestBoth	8	letter_feedback	325	1500	0	0	5	L	49	(1*6) - 4	2	2	TRUE	53	23	23	0	7930.1578517230327634024	QFSJL	13	2	11
5.0.4.0	win	080416	15:14:16	1	1	TestBoth	8	show_math	328	3724	lbuttondown	0	3	L	50	(2*7) - 1	13	13	TRUE	53	23	23	0	7930.1578517230327634024		13	2	11
5.0.4.0	win	080416	15:14:16	1	1	TestBoth	8	solve_math	329	770	TRUE	1	3	L	50	(2*7) - 1	13	13	TRUE	54	23	23	0	7930.1578517230327634024		13	2	11
5.0.4.0	win	080416	15:14:16	1	1	TestBoth	8	show_letter	330	800	0	0	3	P	50	(2*7) - 1	13	13	TRUE	54	23	23	0	7930.1578517230327634024		13	2	11
5.0.4.0	win	080416	15:14:16	1	1	TestBoth	8	show_math	332	2006	lbuttondown	0	3	P	51	(7*2) - 8	6	6	TRUE	54	23	23	0	7930.1578517230327634024		13	2	11
5.0.4.0	win	080416	15:14:16	1	1	TestBoth	8	solve_math	333	978	TRUE	1	3	P	51	(7*2) - 8	6	6	TRUE	55	23	23	0	7930.1578517230327634024		13	2	11
5.0.4.0	win	080416	15:14:16	1	1	TestBoth	8	show_letter	334	800	0	0	3	L	51	(7*2) - 8	6	6	TRUE	55	23	23	0	7930.1578517230327634024		13	2	11
5.0.4.0	win	080416	15:14:16	1	1	TestBoth	8	show_math	337	1061	lbuttondown	0	3	L	52	(1*9) + 4	13	12	FALSE	55	23	23	0	7930.1578517230327634024		13	2	11
5.0.4.0	win	080416	15:14:16	1	1	TestBoth	8	solve_math	338	694	FALSE	1	3	L	52	(1*9) + 4	13	12	FALSE	56	23	23	0	7930.1578517230327634024		13	2	11
5.0.4.0	win	080416	15:14:16	1	1	TestBoth	8	show_letter	339	800	0	0	3	J	52	(1*9) + 4	13	12	FALSE	56	23	23	0	7930.1578517230327634024		13	2	11
5.0.4.0	win	080416	15:14:16	1	1	TestBoth	8	recall_letter	340	1453	P	0	3	J	52	(1*9) + 4	13	12	FALSE	56	23	23	0	7930.1578517230327634024	P	13	2	11
5.0.4.0	win	080416	15:14:16	1	1	TestBoth	8	recall_letter	341	236	L	0	3	J	52	(1*9) + 4	13	12	FALSE	56	23	23	0	7930.1578517230327634024	PL	13	2	11
5.0.4.0	win	080416	15:14:16	1	1	TestBoth	8	recall_letter	342	291	J	0	3	J	52	(1*9) + 4	13	12	FALSE	56	23	23	0	7930.1578517230327634024	PLJ	13	2	11
5.0.4.0	win	080416	15:14:16	1	1	TestBoth	8	recall_letter	343	640	exit	0	3	J	52	(1*9) + 4	13	12	FALSE	56	23	23	0	7930.1578517230327634024	PLJ	13	2	11
5.0.4.0	win	080416	15:14:16	1	1	TestBoth	8	letter_feedback	344	1500	0	0	3	J	52	(1*9) + 4	13	12	FALSE	56	23	23	0	7930.1578517230327634024	PLJ	16	3	14
5.0.4.0	win	080416	15:14:16	1	1	TestBoth	8	show_math	347	571	lbuttondown	0	4	J	53	(7/1) + 3	10	10	TRUE	56	23	23	0	7930.1578517230327634024		16	3	14
5.0.4.0	win	080416	15:14:16	1	1	TestBoth	8	solve_math	348	1000	TRUE	1	4	J	53	(7/1) + 3	10	10	TRUE	57	23	23	0	7930.1578517230327634024		16	3	14
5.0.4.0	win	080416	15:14:16	1	1	TestBoth	8	show_letter	349	800	0	0	4	K	53	(7/1) + 3	10	10	TRUE	57	23	23	0	7930.1578517230327634024		16	3	14
5.0.4.0	win	080416	15:14:16	1	1	TestBoth	8	show_math	353	1794	lbuttondown	0	4	K	54	(1*5) - 4	1	9	FALSE	57	23	23	0	7930.1578517230327634024		16	3	14
5.0.4.0	win	080416	15:14:16	1	1	TestBoth	8	solve_math	354	590	FALSE	1	4	K	54	(1*5) - 4	1	9	FALSE	57	23	23	0	7930.1578517230327634024		16	3	14
5.0.4.0	win	080416	15:14:16	1	1	TestBoth	8	show_letter	355	800	0	0	4	J	54	(1*5) - 4	1	9	FALSE	57	23	23	0	7930.1578517230327634024		16	3	14
5.0.4.0	win	080416	15:14:16	1	1	TestBoth	8	show_math	357	2241	lbuttondown	0	4	J	55	(8/2) + 1	5	5	TRUE	57	23	23	0	7930.1578517230327634024		16	3	14
5.0.4.0	win	080416	15:14:16	1	1	TestBoth	8	solve_math	358	563	TRUE	1	4	J	55	(8/2) + 1	5	5	TRUE	58	23	23	0	7930.1578517230327634024		16	3	14
5.0.4.0	win	080416	15:14:16	1	1	TestBoth	8	show_letter	359	800	0	0	4	S	55	(8/2) + 1	5	5	TRUE	58	23	23	0	7930.1578517230327634024		16	3	14
5.0.4.0	win	080416	15:14:16	1	1	TestBoth	8	show_math	362	3639	lbuttondown	0	4	S	56	(9/3) + 4	7	14	FALSE	58	23	23	0	7930.1578517230327634024		16	3	14
5.0.4.0	win	080416	15:14:16	1	1	TestBoth	8	solve_math	363	857	FALSE	1	4	S	56	(9/3) + 4	7	14	FALSE	59	23	23	0	7930.1578517230327634024		16	3	14
5.0.4.0	win	080416	15:14:16	1	1	TestBoth	8	show_letter	364	800	0	0	4	Y	56	(9/3) + 4	7	14	FALSE	59	23	23	0	7930.1578517230327634024		16	3	14
5.0.4.0	win	080416	15:14:16	1	1	TestBoth	8	recall_letter	365	1346	K	0	4	Y	56	(9/3) + 4	7	14	FALSE	59	23	23	0	7930.1578517230327634024	K	16	3	14
5.0.4.0	win	080416	15:14:16	1	1	TestBoth	8	recall_letter	366	629	J	0	4	Y	56	(9/3) + 4	7	14	FALSE	59	23	23	0	7930.1578517230327634024	KJ	16	3	14
5.0.4.0	win	080416	15:14:16	1	1	TestBoth	8	recall_letter	367	668	S	0	4	Y	56	(9/3) + 4	7	14	FALSE	59	23	23	0	7930.1578517230327634024	KJS	16	3	14
5.0.4.0	win	080416	15:14:16	1	1	TestBoth	8	recall_letter	368	538	Y	0	4	Y	56	(9/3) + 4	7	14	FALSE	59	23	23	0	7930.1578517230327634024	KJSY	16	3	14
5.0.4.0	win	080416	15:14:16	1	1	TestBoth	8	recall_letter	369	558	exit	0	4	Y	56	(9/3) + 4	7	14	FALSE	59	23	23	0	7930.1578517230327634024	KJSY	16	3	14
5.0.4.0	win	080416	15:14:16	1	1	TestBoth	8	letter_feedback	370	1500	0	0	4	Y	56	(9/3) + 4	7	14	FALSE	59	23	23	0	7930.1578517230327634024	KJSY	20	4	18
5.0.4.0	win	080416	15:14:16	1	1	TestBoth	8	show_math	380	2001	lbuttondown	0	7	Y	57	(4/4) - 0	1	0	FALSE	59	23	23	0	7930.1578517230327634024		20	4	18
5.0.4.0	win	080416	15:14:16	1	1	TestBoth	8	solve_math	381	1045	FALSE	1	7	Y	57	(4/4) - 0	1	0	FALSE	60	23	23	0	7930.1578517230327634024		20	4	18
5.0.4.0	win	080416	15:14:16	1	1	TestBoth	8	show_letter	382	800	0	0	7	J	57	(4/4) - 0	1	0	FALSE	60	23	23	0	7930.1578517230327634024		20	4	18
5.0.4.0	win	080416	15:14:16	1	1	TestBoth	8	show_math	384	1406	lbuttondown	0	7	J	58	(3*2) - 2	4	4	TRUE	60	23	23	0	7930.1578517230327634024		20	4	18
5.0.4.0	win	080416	15:14:16	1	1	TestBoth	8	solve_math	385	921	FALSE	0	7	J	58	(3*2) - 2	4	4	TRUE	59	24	24	0	7930.1578517230327634024		20	4	18
5.0.4.0	win	080416	15:14:16	1	1	TestBoth	8	show_letter	386	800	0	0	7	T	58	(3*2) - 2	4	4	TRUE	59	24	24	0	7930.1578517230327634024		20	4	18
5.0.4.0	win	080416	15:14:16	1	1	TestBoth	8	show_math	389	1791	lbuttondown	0	7	T	59	(6/2) + 8	11	14	FALSE	59	24	24	0	7930.1578517230327634024		20	4	18
5.0.4.0	win	080416	15:14:16	1	1	TestBoth	8	solve_math	390	603	FALSE	1	7	T	59	(6/2) + 8	11	14	FALSE	59	24	24	0	7930.1578517230327634024		20	4	18
5.0.4.0	win	080416	15:14:16	1	1	TestBoth	8	show_letter	391	800	0	0	7	H	59	(6/2) + 8	11	14	FALSE	59	24	24	0	7930.1578517230327634024		20	4	18
5.0.4.0	win	080416	15:14:16	1	1	TestBoth	8	show_math	393	1614	lbuttondown	0	7	H	60	(6/6) + 5	6	6	TRUE	59	24	24	0	7930.1578517230327634024		20	4	18
5.0.4.0	win	080416	15:14:16	1	1	TestBoth	8	solve_math	394	833	TRUE	1	7	H	60	(6/6) + 5	6	6	TRUE	60	24	24	0	7930.1578517230327634024		20	4	18
5.0.4.0	win	080416	15:14:16	1	1	TestBoth	8	show_letter	395	800	0	0	7	L	60	(6/6) + 5	6	6	TRUE	60	24	24	0	7930.1578517230327634024		20	4	18
5.0.4.0	win	080416	15:14:16	1	1	TestBoth	8	show_math	397	4610	lbuttondown	0	7	L	61	(2/1) + 6	8	8	TRUE	60	24	24	0	7930.1578517230327634024		20	4	18
5.0.4.0	win	080416	15:14:16	1	1	TestBoth	8	solve_math	398	757	TRUE	1	7	L	61	(2/1) + 6	8	8	TRUE	61	24	24	0	7930.1578517230327634024		20	4	18
5.0.4.0	win	080416	15:14:16	1	1	TestBoth	8	show_letter	399	800	0	0	7	S	61	(2/1) + 6	8	8	TRUE	61	24	24	0	7930.1578517230327634024		20	4	18
5.0.4.0	win	080416	15:14:16	1	1	TestBoth	8	show_math	404	2648	lbuttondown	0	7	S	62	(1*7) - 5	2	0	FALSE	61	24	24	0	7930.1578517230327634024		20	4	18
5.0.4.0	win	080416	15:14:16	1	1	TestBoth	8	solve_math	405	546	FALSE	1	7	S	62	(1*7) - 5	2	0	FALSE	61	24	24	0	7930.1578517230327634024		20	4	18
5.0.4.0	win	080416	15:14:16	1	1	TestBoth	8	show_letter	406	800	0	0	7	Y	62	(1*7) - 5	2	0	FALSE	61	24	24	0	7930.1578517230327634024		20	4	18
5.0.4.0	win	080416	15:14:16	1	1	TestBoth	8	show_math	409	3671	lbuttondown	0	7	Y	63	(5*2) + 6	16	12	FALSE	61	24	24	0	7930.1578517230327634024		20	4	18
5.0.4.0	win	080416	15:14:16	1	1	TestBoth	8	solve_math	410	1079	FALSE	1	7	Y	63	(5*2) + 6	16	12	FALSE	62	24	24	0	7930.1578517230327634024		20	4	18
5.0.4.0	win	080416	15:14:16	1	1	TestBoth	8	show_letter	411	800	0	0	7	P	63	(5*2) + 6	16	12	FALSE	62	24	24	0	7930.1578517230327634024		20	4	18
5.0.4.0	win	080416	15:14:16	1	1	TestBoth	8	recall_letter	412	2183	J	0	7	P	63	(5*2) + 6	16	12	FALSE	62	24	24	0	7930.1578517230327634024	J	20	4	18
5.0.4.0	win	080416	15:14:16	1	1	TestBoth	8	recall_letter	413	609	T	0	7	P	63	(5*2) + 6	16	12	FALSE	62	24	24	0	7930.1578517230327634024	JT	20	4	18
5.0.4.0	win	080416	15:14:16	1	1	TestBoth	8	recall_letter	414	657	H	0	7	P	63	(5*2) + 6	16	12	FALSE	62	24	24	0	7930.1578517230327634024	JTH	20	4	18
5.0.4.0	win	080416	15:14:16	1	1	TestBoth	8	recall_letter	415	591	L	0	7	P	63	(5*2) + 6	16	12	FALSE	62	24	24	0	7930.1578517230327634024	JTHL	20	4	18
5.0.4.0	win	080416	15:14:16	1	1	TestBoth	8	recall_letter	416	936	S	0	7	P	63	(5*2) + 6	16	12	FALSE	62	24	24	0	7930.1578517230327634024	JTHLS	20	4	18
5.0.4.0	win	080416	15:14:16	1	1	TestBoth	8	recall_letter	417	492	Y	0	7	P	63	(5*2) + 6	16	12	FALSE	62	24	24	0	7930.1578517230327634024	JTHLSY	20	4	18
5.0.4.0	win	080416	15:14:16	1	1	TestBoth	8	recall_letter	418	481	P	0	7	P	63	(5*2) + 6	16	12	FALSE	62	24	24	0	7930.1578517230327634024	JTHLSYP	20	4	18
5.0.4.0	win	080416	15:14:16	1	1	TestBoth	8	recall_letter	419	582	exit	0	7	P	63	(5*2) + 6	16	12	FALSE	62	24	24	0	7930.1578517230327634024	JTHLSYP	20	4	18
5.0.4.0	win	080416	15:14:16	1	1	TestBoth	8	letter_feedback	420	1500	0	0	7	P	63	(5*2) + 6	16	12	FALSE	62	24	24	0	7930.1578517230327634024	JTHLSYP	27	5	25
5.0.4.0	win	080416	15:14:16	1	1	TestBoth	8	show_math	423	2947	lbuttondown	0	5	P	64	(4*3) - 3	9	9	TRUE	62	24	24	0	7930.1578517230327634024		27	5	25
5.0.4.0	win	080416	15:14:16	1	1	TestBoth	8	solve_math	424	857	FALSE	0	5	P	64	(4*3) - 3	9	9	TRUE	61	25	25	0	7930.1578517230327634024		27	5	25
5.0.4.0	win	080416	15:14:16	1	1	TestBoth	8	show_letter	425	800	0	0	5	F	64	(4*3) - 3	9	9	TRUE	61	25	25	0	7930.1578517230327634024		27	5	25
5.0.4.0	win	080416	15:14:16	1	1	TestBoth	8	show_math	429	2729	lbuttondown	0	5	F	65	(1*3) - 3	0	0	TRUE	61	25	25	0	7930.1578517230327634024		27	5	25
5.0.4.0	win	080416	15:14:16	1	1	TestBoth	8	solve_math	430	791	TRUE	1	5	F	65	(1*3) - 3	0	0	TRUE	62	25	25	0	7930.1578517230327634024		27	5	25
5.0.4.0	win	080416	15:14:16	1	1	TestBoth	8	show_letter	431	800	0	0	5	J	65	(1*3) - 3	0	0	TRUE	62	25	25	0	7930.1578517230327634024		27	5	25
5.0.4.0	win	080416	15:14:16	1	1	TestBoth	8	show_math	433	1802	lbuttondown	0	5	J	66	(6*2) + 2	14	14	TRUE	62	25	25	0	7930.1578517230327634024		27	5	25
5.0.4.0	win	080416	15:14:16	1	1	TestBoth	8	solve_math	434	1038	TRUE	1	5	J	66	(6*2) + 2	14	14	TRUE	62	25	25	0	7930.1578517230327634024		27	5	25
5.0.4.0	win	080416	15:14:16	1	1	TestBoth	8	show_letter	435	800	0	0	5	S	66	(6*2) + 2	14	14	TRUE	62	25	25	0	7930.1578517230327634024		27	5	25
5.0.4.0	win	080416	15:14:16	1	1	TestBoth	8	show_math	439	1022	lbuttondown	0	5	S	67	(1/1) + 1	2	1	FALSE	62	25	25	0	7930.1578517230327634024		27	5	25
5.0.4.0	win	080416	15:14:16	1	1	TestBoth	8	solve_math	440	865	FALSE	1	5	S	67	(1/1) + 1	2	1	FALSE	63	25	25	0	7930.1578517230327634024		27	5	25
5.0.4.0	win	080416	15:14:16	1	1	TestBoth	8	show_letter	441	800	0	0	5	P	67	(1/1) + 1	2	1	FALSE	63	25	25	0	7930.1578517230327634024		27	5	25
5.0.4.0	win	080416	15:14:16	1	1	TestBoth	8	show_math	444	1873	lbuttondown	0	5	P	68	(7/7) + 4	5	3	FALSE	63	25	25	0	7930.1578517230327634024		27	5	25
5.0.4.0	win	080416	15:14:16	1	1	TestBoth	8	solve_math	445	618	FALSE	1	5	P	68	(7/7) + 4	5	3	FALSE	63	25	25	0	7930.1578517230327634024		27	5	25
5.0.4.0	win	080416	15:14:16	1	1	TestBoth	8	show_letter	446	800	0	0	5	Q	68	(7/7) + 4	5	3	FALSE	63	25	25	0	7930.1578517230327634024		27	5	25
5.0.4.0	win	080416	15:14:16	1	1	TestBoth	8	recall_letter	447	1404	F	0	5	Q	68	(7/7) + 4	5	3	FALSE	63	25	25	0	7930.1578517230327634024	F	27	5	25
5.0.4.0	win	080416	15:14:16	1	1	TestBoth	8	recall_letter	448	1229	J	0	5	Q	68	(7/7) + 4	5	3	FALSE	63	25	25	0	7930.1578517230327634024	FJ	27	5	25
5.0.4.0	win	080416	15:14:16	1	1	TestBoth	8	recall_letter	449	717	S	0	5	Q	68	(7/7) + 4	5	3	FALSE	63	25	25	0	7930.1578517230327634024	FJS	27	5	25
5.0.4.0	win	080416	15:14:16	1	1	TestBoth	8	recall_letter	450	433	P	0	5	Q	68	(7/7) + 4	5	3	FALSE	63	25	25	0	7930.1578517230327634024	FJSP	27	5	25
5.0.4.0	win	080416	15:14:16	1	1	TestBoth	8	recall_letter	451	472	Q	0	5	Q	68	(7/7) + 4	5	3	FALSE	63	25	25	0	7930.1578517230327634024	FJSPQ	27	5	25
5.0.4.0	win	080416	15:14:16	1	1	TestBoth	8	recall_letter	452	510	exit	0	5	Q	68	(7/7) + 4	5	3	FALSE	63	25	25	0	7930.1578517230327634024	FJSPQ	27	5	25
5.0.4.0	win	080416	15:14:16	1	1	TestBoth	8	letter_feedback	453	1500	0	0	5	Q	68	(7/7) + 4	5	3	FALSE	63	25	25	0	7930.1578517230327634024	FJSPQ	32	6	30
5.0.4.0	win	080416	15:14:16	1	1	TestBoth	8	show_math	456	7262	lbuttondown	0	7	Q	69	(5*3) + 9	24	24	TRUE	63	25	25	0	7930.1578517230327634024		32	6	30
5.0.4.0	win	080416	15:14:16	1	1	TestBoth	8	solve_math	457	1639	TRUE	1	7	Q	69	(5*3) + 9	24	24	TRUE	64	25	25	0	7930.1578517230327634024		32	6	30
5.0.4.0	win	080416	15:14:16	1	1	TestBoth	8	show_letter	458	800	0	0	7	R	69	(5*3) + 9	24	24	TRUE	64	25	25	0	7930.1578517230327634024		32	6	30
5.0.4.0	win	080416	15:14:16	1	1	TestBoth	8	show_math	461	1864	lbuttondown	0	7	R	70	(1*2) + 7	9	3	FALSE	64	25	25	0	7930.1578517230327634024		32	6	30
5.0.4.0	win	080416	15:14:16	1	1	TestBoth	8	solve_math	462	2897	FALSE	1	7	R	70	(1*2) + 7	9	3	FALSE	64	25	25	0	7930.1578517230327634024		32	6	30
5.0.4.0	win	080416	15:14:16	1	1	TestBoth	8	show_letter	463	800	0	0	7	L	70	(1*2) + 7	9	3	FALSE	64	25	25	0	7930.1578517230327634024		32	6	30
5.0.4.0	win	080416	15:14:16	1	1	TestBoth	8	show_math	466	3415	lbuttondown	0	7	L	71	(8/4) + 6	8	17	FALSE	64	25	25	0	7930.1578517230327634024		32	6	30
5.0.4.0	win	080416	15:14:16	1	1	TestBoth	8	solve_math	467	667	FALSE	1	7	L	71	(8/4) + 6	8	17	FALSE	65	25	25	0	7930.1578517230327634024		32	6	30
5.0.4.0	win	080416	15:14:16	1	1	TestBoth	8	show_letter	468	800	0	0	7	H	71	(8/4) + 6	8	17	FALSE	65	25	25	0	7930.1578517230327634024		32	6	30
5.0.4.0	win	080416	15:14:16	1	1	TestBoth	8	show_math	474	1777	lbuttondown	0	7	H	72	(5/5) + 1	2	3	FALSE	65	25	25	0	7930.1578517230327634024		32	6	30
5.0.4.0	win	080416	15:14:16	1	1	TestBoth	8	solve_math	475	870	FALSE	1	7	H	72	(5/5) + 1	2	3	FALSE	65	25	25	0	7930.1578517230327634024		32	6	30
5.0.4.0	win	080416	15:14:16	1	1	TestBoth	8	show_letter	476	800	0	0	7	J	72	(5/5) + 1	2	3	FALSE	65	25	25	0	7930.1578517230327634024		32	6	30
5.0.4.0	win	080416	15:14:16	1	1	TestBoth	8	show_math	478	2014	lbuttondown	0	7	J	73	(2*3) - 4	2	2	TRUE	65	25	25	0	7930.1578517230327634024		32	6	30
5.0.4.0	win	080416	15:14:16	1	1	TestBoth	8	solve_math	479	593	TRUE	1	7	J	73	(2*3) - 4	2	2	TRUE	66	25	25	0	7930.1578517230327634024		32	6	30
5.0.4.0	win	080416	15:14:16	1	1	TestBoth	8	show_letter	480	800	0	0	7	F	73	(2*3) - 4	2	2	TRUE	66	25	25	0	7930.1578517230327634024		32	6	30
5.0.4.0	win	080416	15:14:16	1	1	TestBoth	8	show_math	482	1652	lbuttondown	0	7	F	74	(1*4) - 3	1	1	TRUE	66	25	25	0	7930.1578517230327634024		32	6	30
5.0.4.0	win	080416	15:14:16	1	1	TestBoth	8	solve_math	483	597	TRUE	1	7	F	74	(1*4) - 3	1	1	TRUE	66	25	25	0	7930.1578517230327634024		32	6	30
5.0.4.0	win	080416	15:14:16	1	1	TestBoth	8	show_letter	484	800	0	0	7	T	74	(1*4) - 3	1	1	TRUE	66	25	25	0	7930.1578517230327634024		32	6	30
5.0.4.0	win	080416	15:14:16	1	1	TestBoth	8	show_math	492	2206	lbuttondown	0	7	T	75	(2*2) - 3	1	3	FALSE	66	25	25	0	7930.1578517230327634024		32	6	30
5.0.4.0	win	080416	15:14:16	1	1	TestBoth	8	solve_math	493	570	FALSE	1	7	T	75	(2*2) - 3	1	3	FALSE	67	25	25	0	7930.1578517230327634024		32	6	30
5.0.4.0	win	080416	15:14:16	1	1	TestBoth	8	show_letter	494	800	0	0	7	Y	75	(2*2) - 3	1	3	FALSE	67	25	25	0	7930.1578517230327634024		32	6	30
5.0.4.0	win	080416	15:14:16	1	1	TestBoth	8	recall_letter	495	1790	R	0	7	Y	75	(2*2) - 3	1	3	FALSE	67	25	25	0	7930.1578517230327634024	R	32	6	30
5.0.4.0	win	080416	15:14:16	1	1	TestBoth	8	recall_letter	496	375	L	0	7	Y	75	(2*2) - 3	1	3	FALSE	67	25	25	0	7930.1578517230327634024	RL	32	6	30
5.0.4.0	win	080416	15:14:16	1	1	TestBoth	8	recall_letter	497	609	H	0	7	Y	75	(2*2) - 3	1	3	FALSE	67	25	25	0	7930.1578517230327634024	RLH	32	6	30
5.0.4.0	win	080416	15:14:16	1	1	TestBoth	8	recall_letter	498	769	J	0	7	Y	75	(2*2) - 3	1	3	FALSE	67	25	25	0	7930.1578517230327634024	RLHJ	32	6	30
5.0.4.0	win	080416	15:14:16	1	1	TestBoth	8	recall_letter	499	971	F	0	7	Y	75	(2*2) - 3	1	3	FALSE	67	25	25	0	7930.1578517230327634024	RLHJF	32	6	30
5.0.4.0	win	080416	15:14:16	1	1	TestBoth	8	recall_letter	500	621	T	0	7	Y	75	(2*2) - 3	1	3	FALSE	67	25	25	0	7930.1578517230327634024	RLHJFT	32	6	30
5.0.4.0	win	080416	15:14:16	1	1	TestBoth	8	recall_letter	501	461	Y	0	7	Y	75	(2*2) - 3	1	3	FALSE	67	25	25	0	7930.1578517230327634024	RLHJFTY	32	6	30
5.0.4.0	win	080416	15:14:16	1	1	TestBoth	8	recall_letter	502	587	exit	0	7	Y	75	(2*2) - 3	1	3	FALSE	67	25	25	0	7930.1578517230327634024	RLHJFTY	32	6	30
5.0.4.0	win	080416	15:14:16	1	1	TestBoth	8	letter_feedback	503	1500	0	0	7	Y	75	(2*2) - 3	1	3	FALSE	67	25	25	0	7930.1578517230327634024	RLHJFTY	39	7	37
