build	computer.platform	date	time	subject	group	blockcode	blocknum	trialcode	trialnum	latency	response	correct	values.currentsetsize	text.letters.currentitem	values.mathproblemcount	text.MathProblem.currentitem	values.mathtrueanswer	values.mathanswer	values.mathcorrect	values.mathaccuracy	values.mathtotalerrors	values.mathaccerrors	values.mathspeederrors	values.mathtimeout	values.recalledletters	values.totalcorrectletters	values.totalrecalledsets	values.ospan
5.0.4.0	win	080416	09:44:56	1	1	PracLetter	2	show_letter	2	800	0	0	2	F	0	  0	0	0		0	0	0	0	5000		0	0	0
5.0.4.0	win	080416	09:44:56	1	1	PracLetter	2	show_letter	3	800	0	0	2	P	0	  0	0	0		0	0	0	0	5000		0	0	0
5.0.4.0	win	080416	09:44:56	1	1	PracLetter	2	recall_letter	4	1671	F	0	2	P	0	  0	0	0		0	0	0	0	5000	F	0	0	0
5.0.4.0	win	080416	09:44:56	1	1	PracLetter	2	recall_letter	5	357	P	0	2	P	0	  0	0	0		0	0	0	0	5000	FP	0	0	0
5.0.4.0	win	080416	09:44:56	1	1	PracLetter	2	recall_letter	6	3912	exit	0	2	P	0	  0	0	0		0	0	0	0	5000	FP	0	0	0
5.0.4.0	win	080416	09:44:56	1	1	PracLetter	2	letter_feedback	7	1500	0	0	2	P	0	  0	0	0		0	0	0	0	5000	FP	2	1	2
5.0.4.0	win	080416	09:44:56	1	1	PracLetter	2	show_letter	9	800	0	0	2	Q	0	  0	0	0		0	0	0	0	5000		2	1	2
5.0.4.0	win	080416	09:44:56	1	1	PracLetter	2	show_letter	10	800	0	0	2	J	0	  0	0	0		0	0	0	0	5000		2	1	2
5.0.4.0	win	080416	09:44:56	1	1	PracLetter	2	recall_letter	11	1030	Q	0	2	J	0	  0	0	0		0	0	0	0	5000	Q	2	1	2
5.0.4.0	win	080416	09:44:56	1	1	PracLetter	2	recall_letter	12	549	J	0	2	J	0	  0	0	0		0	0	0	0	5000	QJ	2	1	2
5.0.4.0	win	080416	09:44:56	1	1	PracLetter	2	recall_letter	13	528	exit	0	2	J	0	  0	0	0		0	0	0	0	5000	QJ	2	1	2
5.0.4.0	win	080416	09:44:56	1	1	PracLetter	2	letter_feedback	14	1500	0	0	2	J	0	  0	0	0		0	0	0	0	5000	QJ	4	2	4
5.0.4.0	win	080416	09:44:56	1	1	PracLetter	2	show_letter	16	800	0	0	3	H	0	  0	0	0		0	0	0	0	5000		4	2	4
5.0.4.0	win	080416	09:44:56	1	1	PracLetter	2	show_letter	17	800	0	0	3	K	0	  0	0	0		0	0	0	0	5000		4	2	4
5.0.4.0	win	080416	09:44:56	1	1	PracLetter	2	show_letter	18	800	0	0	3	T	0	  0	0	0		0	0	0	0	5000		4	2	4
5.0.4.0	win	080416	09:44:56	1	1	PracLetter	2	recall_letter	19	1797	H	0	3	T	0	  0	0	0		0	0	0	0	5000	H	4	2	4
5.0.4.0	win	080416	09:44:56	1	1	PracLetter	2	recall_letter	20	462	K	0	3	T	0	  0	0	0		0	0	0	0	5000	HK	4	2	4
5.0.4.0	win	080416	09:44:56	1	1	PracLetter	2	recall_letter	21	420	T	0	3	T	0	  0	0	0		0	0	0	0	5000	HKT	4	2	4
5.0.4.0	win	080416	09:44:56	1	1	PracLetter	2	recall_letter	22	740	exit	0	3	T	0	  0	0	0		0	0	0	0	5000	HKT	4	2	4
5.0.4.0	win	080416	09:44:56	1	1	PracLetter	2	letter_feedback	23	1500	0	0	3	T	0	  0	0	0		0	0	0	0	5000	HKT	7	3	7
5.0.4.0	win	080416	09:44:56	1	1	PracLetter	2	show_letter	25	800	0	0	3	S	0	  0	0	0		0	0	0	0	5000		7	3	7
5.0.4.0	win	080416	09:44:56	1	1	PracLetter	2	show_letter	26	800	0	0	3	N	0	  0	0	0		0	0	0	0	5000		7	3	7
5.0.4.0	win	080416	09:44:56	1	1	PracLetter	2	show_letter	27	800	0	0	3	R	0	  0	0	0		0	0	0	0	5000		7	3	7
5.0.4.0	win	080416	09:44:56	1	1	PracLetter	2	recall_letter	28	1544	S	0	3	R	0	  0	0	0		0	0	0	0	5000	S	7	3	7
5.0.4.0	win	080416	09:44:56	1	1	PracLetter	2	recall_letter	29	595	N	0	3	R	0	  0	0	0		0	0	0	0	5000	SN	7	3	7
5.0.4.0	win	080416	09:44:56	1	1	PracLetter	2	recall_letter	30	1004	R	0	3	R	0	  0	0	0		0	0	0	0	5000	SNR	7	3	7
5.0.4.0	win	080416	09:44:56	1	1	PracLetter	2	recall_letter	31	877	exit	0	3	R	0	  0	0	0		0	0	0	0	5000	SNR	7	3	7
5.0.4.0	win	080416	09:44:56	1	1	PracLetter	2	letter_feedback	32	1500	0	0	3	R	0	  0	0	0		0	0	0	0	5000	SNR	10	4	10
